Timestamp,Yaw,Pitch,Roll,Qtn[0], Qtn[1], Qtn[2], Qtn[3],Rate X,Rate Y,Rate Z,Accel X,Accel Y,Accel Z,Mag X,Mag Y,Mag Z,Temp,Pres,dTime,dTheta X,dTheta Y,dTheta Z,dVel X,dVel Y,dVel Z,MagNed X,MagNed Y,MagNed Z,AccelNed X,AccelNed Y,AccelNed Z,LinearAccel X,LinearAccel Y,LinearAccel Z,LinearAccelNed X,LinearAccelNed Y,LinearAccelNed Z,Amplitude,Distance,Light 1,Light 2,Light 3,Light 4,Comments
0.34696,-123.611,-5.24652,8.99524,-0.00320321,-0.0905984,-0.87602,0.473678,0.00787291,0.00745637,-0.0179335,-0.931122,-1.46293,-9.42725,-0.444628,0.168683,0.336905,39.14,99.454,0.024999,0.0108115,0.00810734,-0.0130095,-0.0225071,-0.0379097,-0.235995,0.358158,0.333022,0.316974,0.0545558,0.0296221,-9.58521,-0.0355707,0.061933,0.205523,0.0545558,0.0296221,0.208535,
0.372211,-123.636,-5.22479,9.01031,-0.00299402,-0.0906243,-0.876126,0.473478,0.00984277,0.0137146,-0.0209214,-0.827972,-1.51028,-9.41882,-0.440905,0.168687,0.334259,39.14,99.454,0.025001,0.014409,0.0203709,-0.0226681,-0.0210362,-0.0372793,-0.235238,0.356324,0.329303,0.314921,-0.0382162,-0.0275826,-9.57488,0.0638804,0.0171701,0.213886,-0.0382162,-0.0275826,0.218864,
0.397375,-123.662,-5.20891,9.03499,-0.00279009,-0.0907477,-0.876221,0.47328,0.0198336,0.00296675,-0.0166705,-0.789633,-1.59674,-9.3573,-0.443488,0.181704,0.326955,39.145,99.454,0.024999,0.023719,0.0147311,-0.0218263,-0.0218916,-0.0383646,-0.234385,0.369114,0.323151,0.309719,-0.131244,-0.00316191,-9.52444,0.099517,-0.0651102,0.274986,-0.131244,-0.00316191,0.269305,
0.422513,-123.679,-5.21504,9.07591,-0.00268195,-0.0910851,-0.876257,0.47315,0.032982,-0.00951422,-0.00775309,-0.807255,-1.49728,-9.35641,-0.439692,0.172612,0.334223,39.14,99.442,0.025001,0.040539,-0.00602151,-0.0107147,-0.0212764,-0.038248,-0.233867,0.358795,0.326116,0.315822,-0.0339886,-0.0462662,-9.50961,0.0829374,0.0412178,0.274682,-0.0339886,-0.0462662,0.284134,
0.447663,-123.684,-5.22377,9.13118,-0.0025251,-0.0915432,-0.876229,0.473113,0.0383204,-0.0052876,0.000863146,-0.805604,-1.48613,-9.39534,-0.439742,0.180469,0.338226,39.14,99.454,0.024999,0.0562929,-0.00733226,0.00159196,-0.0191097,-0.0377302,-0.233991,0.364787,0.322807,0.321037,-0.0156556,-0.066214,-9.54596,0.0860746,0.0616334,0.234134,-0.0156556,-0.066214,0.247784,
0.472898,-123.679,-5.23093,9.17351,-0.0024011,-0.0918961,-0.876169,0.473157,0.0211244,-0.00640045,0.00796609,-0.870974,-1.44421,-9.37123,-0.442146,0.168688,0.335605,39.14,99.454,0.025001,0.0450355,-0.00382866,0.0117926,-0.0205092,-0.0357066,-0.233802,0.356334,0.3309,0.316403,0.0584195,-0.0354384,-9.52153,0.0219239,0.110652,0.256989,0.0584195,-0.0354384,0.272211,
0.498046,-123.672,-5.25108,9.1765,-0.00253791,-0.0920012,-0.876124,0.473219,-0.00504731,-0.0135163,0.00534558,-0.889969,-1.46907,-9.37651,-0.440939,0.172586,0.330012,39.145,99.454,0.024999,0.00598659,-0.0154393,0.0152358,-0.0233111,-0.0356266,-0.234101,0.35937,0.327044,0.311474,0.0472763,-0.0103091,-9.53241,0.0063588,0.0862425,0.251313,0.0472763,-0.0103091,0.261333,
0.523197,-123.676,-5.26924,9.15433,-0.00277199,-0.0919056,-0.876146,0.473196,-0.0205969,-0.0114809,-0.00848588,-0.936404,-1.47607,-9.41595,-0.440999,0.18175,0.33399,39.14,99.454,0.025001,-0.0206706,-0.0150425,0.00429817,-0.0235722,-0.0373003,-0.234557,0.366868,0.322818,0.316636,0.0656136,0.0249807,-9.57657,-0.0369853,0.0754722,0.212202,0.0656136,0.0249807,0.217174,
0.548377,-123.702,-5.27493,9.1246,-0.00295876,-0.0917008,-0.876271,0.473003,-0.0226326,-0.00264245,-0.0236541,-1.02664,-1.52671,-9.39757,-0.438494,0.179155,0.33552,39.16,99.458,0.024999,-0.0303052,-0.00608985,-0.0187992,-0.0233716,-0.0378848,-0.234685,0.363519,0.322138,0.317849,0.06734,0.131786,-9.57482,-0.126253,0.0198286,0.231292,0.06734,0.131786,0.218922,
0.573519,-123.747,-5.27425,9.10794,-0.00305879,-0.0915694,-0.876473,0.472653,-0.0070283,-0.0031841,-0.0338455,-0.98484,-1.564,-9.38373,-0.442154,0.170001,0.336966,39.14,99.454,0.025001,-0.0197501,-0.00209632,-0.0399055,-0.0245848,-0.03882,-0.234394,0.358176,0.329962,0.317462,0.0100395,0.121023,-9.56325,-0.0845694,-0.020264,0.245591,0.0100395,0.121023,0.2305,
0.598657,-123.797,-5.26459,9.11956,-0.00297636,-0.0916177,-0.876674,0.47227,0.00920393,0.00744531,-0.0336587,-0.90423,-1.48957,-9.39946,-0.442173,0.172614,0.336913,39.14,99.442,0.024999,0.00802283,0.00598926,-0.0450392,-0.0243333,-0.0385205,-0.234502,0.360552,0.328254,0.317922,0.0309467,0.0120227,-9.55956,-0.00560253,0.0561456,0.2297,0.0309467,0.0120227,0.234187,
0.623788,-123.835,-5.24302,9.13122,-0.00279282,-0.0916183,-0.876836,0.471972,-0.000733046,0.0124703,-0.0229188,-0.933419,-1.44292,-9.34266,-0.442219,0.177798,0.32847,39.14,99.454,0.025001,0.0103811,0.0192321,-0.0354885,-0.0235875,-0.0364513,-0.233657,0.365651,0.32383,0.310639,0.0847533,0.0222518,-9.49899,-0.0384646,0.104808,0.28652,0.0847533,0.0222518,0.294754,
0.649004,-123.842,-5.23158,9.11528,-0.00277672,-0.0914497,-0.876888,0.471908,-0.0155875,0.00619711,0.00410612,-0.994694,-1.41714,-9.35517,-0.442157,0.169995,0.335578,39.14,99.442,0.024999,-0.0135101,0.0141828,-0.00421985,-0.0234605,-0.0351316,-0.233837,0.358663,0.328977,0.316462,0.139973,0.060057,-9.51282,-0.101686,0.127932,0.274613,0.139973,0.060057,0.280927,
0.674146,-123.82,-5.22214,9.09574,-0.00276672,-0.0912623,-0.876816,0.472077,-0.00608141,0.0126059,0.0183859,-0.846682,-1.59328,-9.38504,-0.440912,0.168668,0.330093,39.14,99.454,0.025001,-0.0156259,0.0165126,0.0260022,-0.0219672,-0.0377694,-0.234329,0.35726,0.327796,0.311011,-0.0873726,0.030587,-9.55645,0.0447199,-0.0514635,0.245415,-0.0873726,0.030587,0.237291,
0.699283,-123.79,-5.19459,9.10298,-0.00250172,-0.0912065,-0.876708,0.472291,0.0116912,0.0267579,0.0167094,-0.758078,-1.62213,-9.31505,-0.439705,0.173913,0.332808,39.155,99.458,0.025,0.00973568,0.0340456,0.0303012,-0.0203379,-0.0402644,-0.233572,0.360428,0.324506,0.314858,-0.162537,-0.012784,-9.48418,0.128633,-0.0790311,0.31563,-0.162537,-0.012784,0.309569,
0.724419,-123.767,-5.16026,9.1252,-0.00212806,-0.0912373,-0.876617,0.472454,0.0180211,0.0213831,0.0107101,-0.83152,-1.48075,-9.31668,-0.44466,0.172596,0.335437,39.14,99.442,0.024999,0.0249529,0.0397552,0.0229786,-0.020866,-0.0383179,-0.233184,0.361513,0.32981,0.317117,0.00162816,-0.02554,-9.47016,0.049348,0.0661724,0.313923,0.00162816,-0.02554,0.323585,
0.749554,-123.753,-5.14325,9.15246,-0.00187362,-0.0913768,-0.876548,0.472557,0.020624,0.00714047,0.00438389,-0.888323,-1.52543,-9.30754,-0.442162,0.169982,0.332801,39.14,99.442,0.025,0.0303132,0.0216654,0.0167427,-0.0209662,-0.037486,-0.233213,0.35791,0.328827,0.314532,0.000565946,0.046808,-9.47334,-0.0103519,0.0261066,0.322583,0.000565946,0.046808,0.320401,
0.774692,-123.749,-5.14646,9.1822,-0.00177287,-0.0916175,-0.876508,0.472585,0.0195156,-0.00840304,0.0025905,-0.82678,-1.51004,-9.34077,-0.443424,0.173928,0.339621,39.16,99.446,0.025001,0.0309892,0.000579453,0.00930026,-0.0211459,-0.0383184,-0.233533,0.361149,0.329005,0.321784,-0.0141779,-0.0209745,-9.49805,0.0517385,0.046498,0.288505,-0.0141779,-0.0209745,0.295691,
0.799827,-123.745,-5.15941,9.20127,-0.00178999,-0.091816,-0.876465,0.472626,0.0090723,-0.00643801,0.0036364,-0.799878,-1.48293,-9.39114,-0.440981,0.179145,0.335434,39.14,99.442,0.024999,0.0212287,-0.00954941,0.0121054,-0.0210273,-0.0373121,-0.234035,0.364387,0.323663,0.318649,-0.000954986,-0.0695194,-9.54084,0.0808445,0.0767752,0.237418,-0.000954986,-0.0695194,0.252911,
0.824964,-123.682,-5.16441,9.1953,-0.00180271,-0.0917918,-0.876207,0.473108,-0.00845702,0.0123671,0.0685745,-0.849565,-1.44109,-9.47533,-0.439671,0.168681,0.331527,39.14,99.467,0.025001,0.00380363,0.00611214,0.0681948,-0.0192422,-0.0337338,-0.235651,0.355003,0.327946,0.313207,0.0670307,-0.0645794,-9.62142,0.0320093,0.117604,0.153316,0.0670307,-0.0645794,0.17233,
0.850098,-123.625,-5.15144,9.18747,-0.00169008,-0.0916799,-0.875988,0.473537,0.00316698,0.0179376,0.0333044,-0.923282,-1.43347,-9.43827,-0.443383,0.166038,0.328672,39.14,99.454,0.025,-0.0021948,0.0246404,0.059215,-0.0214427,-0.0404618,-0.235648,0.354771,0.332239,0.309738,0.111077,0.00109923,-9.59041,-0.0439155,0.123934,0.19078,0.111077,0.00109923,0.203337,
0.875237,-123.569,-5.13555,9.16879,-0.00160018,-0.0914732,-0.87578,0.473961,-0.00716732,0.0161524,0.0178076,-0.976538,-1.56451,-9.43344,-0.443376,0.166072,0.335617,39.14,99.454,0.025,-0.0110162,0.0287868,0.0581206,-0.0236291,-0.0368859,-0.235791,0.35393,0.33355,0.316668,0.0300549,0.120094,-9.61123,-0.0998777,-0.0102026,0.196366,0.0300549,0.120094,0.182519,
0.900374,-123.579,-5.11424,9.14305,-0.00155134,-0.0911892,-0.875858,0.473873,-0.0239032,0.0132749,-0.00470746,-0.792764,-1.17102,-9.47658,-0.441004,0.181759,0.335382,39.14,99.454,0.024999,-0.0253551,0.0225848,-0.00815419,-0.0215371,-0.0372747,-0.235847,0.365796,0.322909,0.319257,0.257586,-0.244228,-9.57493,0.0802675,0.379005,0.154243,0.257586,-0.244228,0.218816,
0.925536,-123.588,-5.0806,9.08657,-0.00153423,-0.0906201,-0.875964,0.473786,-0.0443035,0.0197742,-0.039389,-0.923693,-1.55216,-9.36409,-0.444685,0.175203,0.333996,39.14,99.442,0.025,-0.0543069,0.0356221,-0.00946213,-0.0233989,-0.0354232,-0.235155,0.362735,0.328824,0.31669,-0.000871539,0.0960219,-9.53621,-0.0563883,-0.0115478,0.268761,-0.000871539,0.0960219,0.257536,
0.950675,-123.654,-5.05262,9.02942,-0.0016072,-0.0900682,-0.876297,0.473274,-0.0428109,0.0113896,-0.0470313,-1.02139,-1.29393,-9.35752,-0.447141,0.171273,0.333989,39.14,99.467,0.025,-0.0612457,0.021496,-0.0635404,-0.0230584,-0.0370168,-0.233819,0.36141,0.332216,0.315964,0.261598,0.0488381,-9.49789,-0.158846,0.237144,0.277271,0.261598,0.0488381,0.295855,
0.975812,-123.675,-5.04162,8.96689,-0.00179736,-0.0895448,-0.87644,0.473108,-0.0412697,0.00457776,-0.00849553,-0.921348,-1.42964,-9.41237,-0.444674,0.172558,0.327106,39.15,99.442,0.025001,-0.0613056,0.012908,-0.0174097,-0.0240589,-0.0354999,-0.23555,0.362081,0.327983,0.309572,0.0906681,0.0371112,-9.5643,-0.0606797,0.0909414,0.224255,0.0906681,0.0371112,0.229445,
1.00095,-123.642,-5.02167,8.91804,-0.00182059,-0.0890904,-0.876357,0.473348,-0.0203382,0.0307073,0.0397997,-0.791031,-1.37104,-9.49883,-0.44214,0.167404,0.339803,39.16,99.458,0.025,-0.0418631,0.0279182,0.0341469,-0.0214102,-0.0339344,-0.238041,0.355372,0.330591,0.321556,0.0694644,-0.108704,-9.62895,0.0662403,0.141369,0.139384,0.0694644,-0.108704,0.1648,
1.02604,-123.55,-4.96701,8.90114,-0.00139989,-0.0887394,-0.876027,0.474026,0.00796755,0.052015,0.0580279,-0.881598,-1.59986,-9.27811,-0.443401,0.170011,0.339705,39.14,99.442,0.024999,-0.0073792,0.0708229,0.0871686,-0.0210067,-0.0379911,-0.234636,0.357628,0.330479,0.32217,-0.0858983,0.13281,-9.4549,-0.0336344,-0.0901615,0.361352,-0.0858983,0.13281,0.338849,
1.05118,-123.465,-4.91176,8.91489,-0.000853338,-0.0886194,-0.8757,0.474653,0.0140928,0.0482722,0.0568206,-0.891694,-1.41715,-9.32156,-0.445914,0.173911,0.338147,39.14,99.442,0.025,0.0217217,0.0717037,0.0803941,-0.0220092,-0.0381054,-0.233164,0.361647,0.330564,0.321507,0.0818663,0.0431405,-9.47029,-0.0531395,0.0949856,0.318344,0.0818663,0.0431405,0.323459,
1.07632,-123.384,-4.86877,8.92325,-0.000425943,-0.0885078,-0.875383,0.475258,0.00647147,0.0327614,0.0406023,-0.813771,-1.49237,-9.28922,-0.440929,0.171322,0.338378,39.14,99.442,0.025001,0.0172905,0.0584577,0.0789925,-0.0205319,-0.0361156,-0.232639,0.356093,0.328175,0.322131,-0.021152,0.0286895,-9.4434,0.0174625,0.0212651,0.351077,-0.021152,0.0286895,0.350345,
1.10146,-123.328,-4.8544,8.92366,-0.000270998,-0.0884522,-0.875161,0.475679,0.00118206,0.00724845,0.0284676,-0.777302,-1.48809,-9.20009,-0.444626,0.167393,0.339716,39.145,99.454,0.024999,0.00699285,0.0255008,0.0581347,-0.0194961,-0.03593,-0.230547,0.354367,0.333831,0.322647,-0.0436788,0.0117928,-9.35191,0.0514843,0.0256508,0.440405,-0.0436788,0.0117928,0.441835,
1.12659,-123.314,-4.87604,8.92566,-0.000417767,-0.0885563,-0.875087,0.475794,-0.00105693,-0.0244547,0.00227759,-0.783595,-1.57279,-9.11968,-0.445877,0.16734,0.329948,39.16,99.458,0.025,0.00358906,-0.0164601,0.0225628,-0.0196252,-0.0387542,-0.22803,0.355799,0.333578,0.312743,-0.119161,0.0714092,-9.28639,0.0488761,-0.0587619,0.520448,-0.119161,0.0714092,0.507356,
1.15172,-123.336,-4.92225,8.91765,-0.00082193,-0.0886844,-0.875153,0.475649,-0.00898837,-0.0342273,-0.0126864,-0.855355,-1.40932,-9.25197,-0.443408,0.169992,0.335539,39.14,99.442,0.025,-0.00840783,-0.0453951,-0.0087703,-0.0210809,-0.0362501,-0.230894,0.356495,0.331033,0.318469,0.062044,0.0180746,-9.39748,-0.0150136,0.103252,0.387711,0.062044,0.0180746,0.39627,
1.17687,-123.357,-4.97096,8.90399,-0.00126828,-0.0887796,-0.875219,0.475508,-0.00813716,-0.0362178,-0.00690838,-0.838216,-1.51948,-9.30432,-0.443421,0.171292,0.334124,39.14,99.442,0.025,-0.0144229,-0.0480371,-0.00783788,-0.0209873,-0.0376613,-0.231996,0.358042,0.330177,0.316846,-0.0410058,0.0487511,-9.46455,0.0104204,-0.00931591,0.335012,-0.0410058,0.0487511,0.329196,
1.20203,-123.366,-5.02323,8.90206,-0.00168403,-0.0889789,-0.875224,0.47546,-4.08146e-05,-0.0405592,0.00443455,-0.843025,-1.57257,-9.24897,-0.442234,0.179143,0.335396,39.14,99.454,0.025001,-0.00240883,-0.0492991,0.00439914,-0.021575,-0.0382104,-0.230466,0.364046,0.32539,0.318976,-0.0920951,0.0826759,-9.41869,0.0145119,-0.0628474,0.389643,-0.0920951,0.0826759,0.375053,
1.22717,-123.361,-5.08492,8.91177,-0.00211328,-0.0893059,-0.875158,0.475519,0.010927,-0.0377843,0.0128292,-0.836706,-1.46528,-9.38642,-0.444658,0.17132,0.341027,39.14,99.442,0.025,0.0101516,-0.0563487,0.0190859,-0.0223667,-0.038321,-0.232965,0.358516,0.332807,0.322608,0.000688851,-0.0107517,-9.53687,0.0313352,0.045929,0.251022,0.000688851,-0.0107517,0.25688,
1.2523,-123.336,-5.12017,8.92434,-0.0023112,-0.0895468,-0.875018,0.47573,0.00931676,-0.0135329,0.0259178,-0.892681,-1.54297,-9.42409,-0.442257,0.181742,0.332565,39.14,99.454,0.024999,0.0159576,-0.0279928,0.036194,-0.0210664,-0.0377769,-0.235426,0.366465,0.3243,0.31584,-0.0318004,0.0650686,-9.59093,-0.0186392,-0.0297234,0.212484,-0.0318004,0.0650686,0.202818,
1.27744,-123.304,-5.13956,8.93294,-0.00239918,-0.0896926,-0.874866,0.475982,0.00449988,-0.0117026,0.0224634,-0.984058,-1.58254,-9.37772,-0.44219,0.172612,0.335532,39.14,99.454,0.025001,0.012592,-0.0104972,0.0397142,-0.0223482,-0.037706,-0.235705,0.358412,0.329886,0.317212,-0.0191939,0.166003,-9.55964,-0.106714,-0.0679006,0.258331,-0.0191939,0.166003,0.234111,
1.3026,-123.288,-5.15903,8.92971,-0.00254905,-0.0897481,-0.874788,0.476114,-0.00678808,-0.00619566,0.00638817,-0.772855,-1.50389,-9.49479,-0.445883,0.167349,0.331341,39.155,99.458,0.024999,-0.000521156,-0.0133165,0.0243764,-0.0216523,-0.0371129,-0.237007,0.356366,0.335265,0.311776,-0.0618797,-0.0726537,-9.64369,0.107804,0.0101673,0.14106,-0.0618797,-0.0726537,0.150051,
1.32774,-123.288,-5.13975,8.91902,-0.00244601,-0.0895874,-0.874811,0.476103,-0.00817217,0.0252598,-0.00727557,-0.732533,-1.47994,-9.54276,-0.4434,0.167361,0.331429,39.14,99.442,0.025001,-0.00830978,0.0193001,0.00252228,-0.0186805,-0.0365238,-0.239221,0.35501,0.333078,0.312226,-0.0597988,-0.12286,-9.68362,0.144843,0.0323567,0.0936627,-0.0597988,-0.12286,0.11013,
1.35288,-123.295,-5.10451,8.91361,-0.00220408,-0.0894014,-0.874868,0.476034,-0.00089696,0.0160877,-0.00960784,-0.934613,-1.46235,-9.43339,-0.4457,0.139871,0.322185,39.14,99.454,0.024999,-0.00445586,0.0359487,-0.00699972,-0.0209948,-0.0371381,-0.236074,0.334075,0.347894,0.298963,0.0589619,0.0588628,-9.59134,-0.0632362,0.0491272,0.203705,0.0589619,0.0588628,0.202402,
1.37802,-123.313,-5.10277,8.91246,-0.00220949,-0.0893851,-0.874945,0.475896,-0.00299895,-0.00959688,-0.0138717,-0.909567,-1.46471,-9.41233,-0.443283,0.14902,0.320696,39.14,99.429,0.025001,-0.00231067,0.00310438,-0.0127196,-0.0224086,-0.0384333,-0.234719,0.340606,0.340672,0.299137,0.0415987,0.0429404,-9.56876,-0.0384872,0.0465727,0.224821,0.0415987,0.0429404,0.22499,
1.40316,-123.339,-5.10155,8.9109,-0.00222666,-0.0893678,-0.875053,0.475699,-0.00589832,0.00618856,-0.0178478,-0.719669,-1.50214,-9.46839,-0.439611,0.156875,0.320664,39.14,99.454,0.025,-0.00197009,-0.000800886,-0.0198673,-0.0200628,-0.0364492,-0.236483,0.345298,0.333274,0.300652,-0.0890698,-0.103778,-9.61281,0.151204,0.00888059,0.168823,-0.0890698,-0.103778,0.18094,
1.4283,-123.356,-5.0694,8.91208,-0.00198858,-0.0892447,-0.875144,0.475556,-0.00283937,0.0261124,-0.0124224,-0.779305,-1.46015,-9.41274,-0.440801,0.150364,0.326311,39.14,99.454,0.025,0.00216608,0.0300991,-0.0159925,-0.0198878,-0.0361993,-0.236357,0.340069,0.338379,0.305364,-0.0228637,-0.0632737,-9.55691,0.0860934,0.0511542,0.224918,-0.0228637,-0.0632737,0.236835,
1.45349,-123.361,-5.02844,8.90391,-0.00171238,-0.0890145,-0.875199,0.475501,-0.00899745,0.0228346,-0.00435001,-0.876459,-1.39448,-9.33153,-0.445757,0.149048,0.328942,39.145,99.446,0.025,-0.00603337,0.0420307,-0.00578292,-0.0206565,-0.03562,-0.23353,0.341423,0.343377,0.307637,0.0810202,0.00186729,-9.47542,-0.0180349,0.115545,0.306953,0.0810202,0.00186729,0.318321,
1.47871,-123.363,-4.99413,8.88702,-0.00152122,-0.0887449,-0.875244,0.475469,-0.0135412,0.0274006,-0.00838035,-0.828977,-1.50893,-9.34412,-0.445788,0.150254,0.308077,39.15,99.467,0.024999,-0.0151409,0.0371549,-0.00230455,-0.0209274,-0.0365301,-0.233534,0.344146,0.339263,0.28754,-0.0384613,0.0275545,-9.50128,0.0236049,-0.00167359,0.295319,-0.0384613,0.0275545,0.292463,
1.50386,-123.372,-4.95868,8.87488,-0.00130694,-0.0885068,-0.875314,0.475384,-0.0108674,0.0197663,-0.0127283,-0.84113,-1.42288,-9.31693,-0.444564,0.154226,0.317764,39.14,99.442,0.025,-0.0109721,0.0374328,-0.00927745,-0.0215446,-0.0361022,-0.233774,0.346001,0.3374,0.298062,0.0391675,0.00212324,-9.46233,0.00541549,0.0824127,0.323344,0.0391675,0.00212324,0.331412,
1.52901,-123.384,-4.95071,8.86277,-0.00130509,-0.0883814,-0.875377,0.475291,-0.00953982,-0.00671422,-0.00883025,-0.876777,-1.46556,-9.26066,-0.442079,0.15559,0.327549,39.14,99.454,0.025001,-0.0114232,0.0110428,-0.00777857,-0.0225512,-0.0362504,-0.231924,0.34508,0.335986,0.308162,0.0176536,0.0654681,-9.41657,-0.0315898,0.0377217,0.380052,0.0176536,0.0654681,0.377177,
1.55416,-123.398,-4.95296,8.84212,-0.00141858,-0.0882328,-0.875449,0.475187,-0.0152597,0.0054429,-0.0112621,-0.831963,-1.41299,-9.37912,-0.441987,0.142528,0.32782,39.16,99.458,0.025,-0.0200147,-0.000595419,-0.00795611,-0.0208593,-0.0361977,-0.233222,0.334327,0.342767,0.30638,0.0434569,-0.0167289,-9.52126,0.0136088,0.0868087,0.262099,0.0434569,-0.0167289,0.272486,
1.57931,-123.413,-4.92268,8.81703,-0.00130206,-0.0879169,-0.87555,0.475059,-0.0187531,0.0211281,-0.0169226,-0.852876,-1.46087,-9.21207,-0.443243,0.143809,0.323582,39.14,99.442,0.024999,-0.0235884,0.0289948,-0.0138621,-0.0191758,-0.0355521,-0.23343,0.336551,0.342162,0.302505,0.000812471,0.0585926,-9.36592,-0.0124614,0.0347714,0.430241,0.000812471,0.0585926,0.42783,
1.60445,-123.434,-4.91234,8.79622,-0.0013253,-0.0877153,-0.875661,0.474892,-0.0119171,-0.00837479,-0.015959,-0.858332,-1.3673,-9.16755,-0.442158,0.168713,0.33978,39.16,99.458,0.025,-0.0199339,0.0111816,-0.0173807,-0.0216841,-0.0345534,-0.23028,0.355561,0.330239,0.322393,0.076176,0.0233721,-9.30827,-0.0196778,0.124868,0.475454,0.076176,0.0233721,0.485476,
1.6296,-123.466,-4.95405,8.78163,-0.00172996,-0.0877741,-0.875777,0.474666,-0.0146068,-0.0461442,-0.0227147,-0.893161,-1.52082,-9.13337,-0.43966,0.166092,0.335755,39.16,99.458,0.025,-0.0162689,-0.0414854,-0.0197685,-0.0234112,-0.0369556,-0.227825,0.35272,0.328883,0.317874,-0.0408165,0.135214,-9.30103,-0.0474033,-0.0312069,0.509408,-0.0408165,0.135214,0.492716,
1.65474,-123.515,-4.9996,8.76993,-0.0021652,-0.0878701,-0.875959,0.474311,-0.00848415,-0.0272232,-0.0290246,-0.810934,-1.39308,-9.30385,-0.44215,0.1674,0.338418,39.155,99.442,0.025001,-0.0145969,-0.0495235,-0.0357577,-0.0200875,-0.0364636,-0.23253,0.355444,0.330535,0.320082,0.0281782,-0.0330557,-9.44236,0.0425788,0.0944689,0.33856,0.0281782,-0.0330557,0.351388,
1.67988,-123.556,-5.02745,8.76291,-0.00243957,-0.0879294,-0.876116,0.474007,-0.00331961,-0.0229703,-0.0196928,-0.858578,-1.39051,-9.23284,-0.440961,0.173911,0.332772,39.15,99.454,0.025,-0.00884647,-0.0309783,-0.0309322,-0.0203455,-0.0356246,-0.23197,0.361006,0.325029,0.315372,0.0474062,0.0130206,-9.37622,-0.000323173,0.0957894,0.409348,0.0474062,0.0130206,0.417522,
1.70503,-123.57,-5.07953,8.76404,-0.00284507,-0.0881504,-0.876138,0.473923,0.00447446,-0.0495665,0.00344948,-0.893998,-1.53463,-9.1774,-0.442163,0.168693,0.335614,39.14,99.442,0.024999,0.00173227,-0.0497744,-0.000337148,-0.022171,-0.0354033,-0.230627,0.35734,0.329422,0.316846,-0.0617535,0.121057,-9.34669,-0.0268758,-0.0482607,0.463982,-0.0617535,0.121057,0.44706,
1.73016,-123.575,-5.16271,8.77419,-0.00344555,-0.0885675,-0.876098,0.473916,0.00931499,-0.0541393,0.00594224,-0.780189,-1.40299,-9.37803,-0.443383,0.164749,0.331484,39.16,99.446,0.025,0.0107876,-0.0801138,0.0128038,-0.0209306,-0.0364515,-0.233102,0.355289,0.332276,0.311407,-0.00553507,-0.0878272,-9.51404,0.101096,0.0848922,0.261829,-0.00553507,-0.0878272,0.279709,
1.75527,-123.583,-5.2326,8.78555,-0.00394086,-0.0889395,-0.876074,0.473886,0.00734898,-0.0509298,-1.08797e-05,-0.866945,-1.39954,-9.38249,-0.44345,0.175232,0.338214,39.155,99.454,0.025001,0.0127834,-0.0680743,0.00863443,-0.0205436,-0.0356883,-0.235452,0.363714,0.328105,0.319063,0.0406005,-0.0291165,-9.5257,0.0262375,0.0900889,0.256013,0.0406005,-0.0291165,0.26805,
1.78044,-123.598,-5.3041,8.80316,-0.00442898,-0.0893653,-0.876078,0.473794,0.0129225,-0.0447722,-0.00640468,-0.921995,-1.46878,-9.52761,-0.437218,0.171324,0.334348,39.14,99.442,0.025,0.0178557,-0.0694512,0.000632389,-0.0227097,-0.036845,-0.237157,0.35755,0.324702,0.314684,0.020402,0.0187334,-9.68411,-0.0166432,0.0236367,0.109325,0.020402,0.0187334,0.109638,
1.80558,-123.628,-5.34976,8.82099,-0.00472852,-0.0896867,-0.876154,0.473591,0.0108042,-0.0188573,-0.0216999,-0.774416,-1.48078,-9.57841,-0.440883,0.163488,0.338545,39.14,99.442,0.024999,0.0167232,-0.0469786,-0.0161849,-0.021685,-0.0367565,-0.238101,0.352953,0.332705,0.316939,-0.0688109,-0.113499,-9.72218,0.138707,0.0145239,0.0573407,-0.0688109,-0.113499,0.0715656,
1.83072,-123.663,-5.33571,8.83791,-0.00457863,-0.0897573,-0.876298,0.473313,0.00977559,0.0126715,-0.0299394,-0.815493,-1.41523,-9.44497,-0.439687,0.168679,0.330146,39.16,99.446,0.025001,0.0160208,0.00952241,-0.0314853,-0.0205805,-0.0359342,-0.238165,0.357327,0.327352,0.309729,0.0016588,-0.0925727,-9.58471,0.0952379,0.0829575,0.190563,0.0016588,-0.0925727,0.209031,
1.85586,-123.701,-5.31974,8.85348,-0.00442121,-0.0898098,-0.876451,0.47302,0.00914897,0.00394654,-0.0268304,-1.00795,-1.44608,-9.35553,-0.444672,0.172614,0.338223,39.155,99.442,0.025,0.0140531,0.0132483,-0.0341596,-0.0230576,-0.0361159,-0.23469,0.362812,0.330425,0.317979,0.0790601,0.0986377,-9.5193,-0.0999414,0.0547663,0.27984,0.0790601,0.0986377,0.274442,
1.88103,-123.734,-5.33899,8.86138,-0.00456237,-0.0899474,-0.876568,0.472775,0.00301853,-0.0195091,-0.0187997,-0.917408,-1.38815,-9.85758,-0.442137,0.163422,0.325998,39.15,99.446,0.025,0.00724573,-0.0196451,-0.0244461,-0.0235947,-0.0363017,-0.239345,0.354935,0.331189,0.304635,0.115102,-0.0921949,-9.99593,-0.00611698,0.113974,-0.22271,0.115102,-0.0921949,-0.202186,
1.90617,-123.761,-5.29734,8.84337,-0.00433795,-0.089639,-0.876722,0.472551,-0.0206955,0.0605606,-0.0219772,-0.612421,-1.47011,-10.1477,-0.443414,0.168655,0.328625,39.16,99.458,0.024999,-0.0185431,0.0394641,-0.0275653,-0.0186674,-0.0359468,-0.25266,0.359901,0.329442,0.308211,-0.0978727,-0.339703,-10.2659,0.29178,0.0290852,-0.51176,-0.0978727,-0.339703,-0.472126,
1.93131,-123.764,-5.13055,8.8041,-0.00322146,-0.0886597,-0.876877,0.472457,-0.0267045,0.156162,-0.0217087,-0.655489,-1.48717,-10.116,-0.442179,0.16998,0.331421,39.16,99.458,0.025,-0.0377881,0.166899,-0.0233747,-0.0184835,-0.0368526,-0.254358,0.359813,0.327242,0.312574,-0.0799062,-0.261092,-10.2421,0.22032,0.00582149,-0.476471,-0.0799062,-0.261092,-0.44838,
1.95645,-123.76,-4.88448,8.7639,-0.00149403,-0.0873504,-0.877051,0.472388,-0.0284175,0.196093,-0.0356714,-0.847194,-1.70582,-9.77774,-0.443461,0.175186,0.32849,39.155,99.442,0.025,-0.0381149,0.246553,-0.0279585,-0.0197622,-0.0377888,-0.248059,0.364502,0.323811,0.312312,-0.163527,0.108297,-9.95959,-0.0132846,-0.219031,-0.133497,-0.163527,0.108297,-0.165841,
1.9816,-123.775,-4.61354,8.72988,0.000435691,-0.0859864,-0.877308,0.472162,-0.0406671,0.207672,-0.054626,-0.732456,-1.54171,-9.54815,-0.448372,0.168685,0.339563,39.16,99.458,0.025001,-0.0336166,0.268311,-0.0502909,-0.0179883,-0.0364026,-0.241136,0.360359,0.331605,0.323996,-0.0886585,0.00173974,-9.6991,0.055299,-0.0600641,0.100771,-0.0886585,0.00173974,0.0946417,
2.00674,-123.812,-4.36073,8.69981,0.00222597,-0.0847269,-0.87764,0.471767,-0.0253247,0.183061,-0.0466725,-0.493698,-1.09284,-9.37908,-0.448348,0.164746,0.335476,39.16,99.458,0.025,-0.0313296,0.246931,-0.0698527,-0.0160985,-0.0338297,-0.234795,0.357003,0.331579,0.321413,0.155822,-0.37545,-9.44669,0.250975,0.384254,0.27396,0.155822,-0.37545,0.34706,
2.03187,-123.865,-4.17351,8.67029,0.00350426,-0.0837398,-0.87799,0.471284,-0.00796534,0.122445,-0.0386643,-0.62307,-1.04879,-8.9851,-0.450873,0.171292,0.34081,39.16,99.458,0.024999,-0.0316312,0.179887,-0.0747818,-0.0161469,-0.0332784,-0.226743,0.363234,0.329581,0.328962,0.24344,-0.207356,-9.0619,0.0896903,0.423688,0.671046,0.24344,-0.207356,0.731847,
2.05705,-123.925,-4.05858,8.63402,0.00419497,-0.0829962,-0.87833,0.470777,-0.0196619,0.0691253,-0.0405495,-0.77526,-1.35498,-8.64353,-0.453351,0.169954,0.336581,39.16,99.446,0.025,-0.0388886,0.107434,-0.0708316,-0.0153787,-0.0351828,-0.221736,0.364032,0.330699,0.325296,0.0511157,0.151327,-8.78192,-0.0820949,0.111589,1.01494,0.0511157,0.151327,1.01182,
2.08218,-123.994,-3.9993,8.59547,0.00444235,-0.0824624,-0.878676,0.470221,-0.0319273,0.0197917,-0.0462037,-1.04837,-1.51189,-8.45805,-0.449602,0.167386,0.342324,39.14,99.442,0.025001,-0.0418374,0.0512406,-0.0718668,-0.0177964,-0.0339798,-0.220233,0.359738,0.328945,0.331254,0.0584469,0.499465,-8.64122,-0.365312,-0.0517116,1.20211,0.0584469,0.499465,1.15253,
2.10732,-124.056,-4.00825,8.57491,0.00424458,-0.0823434,-0.878941,0.46975,-0.0297228,-0.0314007,-0.0348011,-0.9906,-1.43621,-8.44597,-0.452078,0.166061,0.340874,39.16,99.458,0.024999,-0.023386,-0.0149853,-0.0545848,-0.0192963,-0.0341966,-0.219721,0.360644,0.331086,0.329339,0.0848275,0.412716,-8.614,-0.306017,0.020486,1.21461,0.0848275,0.412716,1.17975,
2.13246,-124.103,-4.09066,8.57526,0.00357852,-0.082682,-0.879084,0.469428,-0.0146951,-0.0849742,-0.0145942,-1.26701,-1.3552,-8.41079,-0.450916,0.176491,0.335146,39.16,99.446,0.025001,-0.00129759,-0.0852392,-0.0282745,-0.0210777,-0.0322221,-0.218166,0.369609,0.323723,0.324638,0.296697,0.591448,-8.58751,-0.568373,0.101404,1.2488,0.296697,0.591448,1.20623,
2.15756,-124.139,-4.22463,8.60532,0.00264468,-0.0834567,-0.879132,0.469207,0.0053857,-0.103074,-0.00499915,-1.25635,-1.35366,-8.5279,-0.448446,0.177789,0.33104,39.16,99.446,0.024999,0.0289921,-0.134659,-0.0103022,-0.0213281,-0.0346741,-0.219356,0.370115,0.320887,0.319918,0.294527,0.545595,-8.70353,-0.534878,0.107771,1.12928,0.294527,0.545595,1.09021,
2.18269,-124.178,-4.37539,8.66019,0.00168041,-0.0844889,-0.879162,0.468969,0.0183909,-0.112508,-0.00577389,-1.26346,-1.35994,-8.59643,-0.449669,0.17517,0.331049,39.16,99.458,0.025001,0.0535202,-0.151705,-0.0107249,-0.0220107,-0.0340884,-0.221453,0.369056,0.323965,0.318315,0.293312,0.521015,-8.77422,-0.51629,0.110448,1.05743,0.293312,0.521015,1.01953,
2.20783,-124.201,-4.56399,8.71021,0.000416293,-0.0856361,-0.879106,0.46887,0.0140066,-0.149498,0.0135038,-1.25043,-1.43073,-8.53002,-0.447231,0.183066,0.340699,39.14,99.442,0.024999,0.0500297,-0.186671,0.0107707,-0.0239132,-0.0310897,-0.22223,0.373886,0.31999,0.32775,0.212529,0.53059,-8.72039,-0.471117,0.0476997,1.12007,0.212529,0.53059,1.07336,
2.23296,-124.211,-4.81755,8.74217,-0.0014114,-0.0869066,-0.878961,0.468906,0.0323124,-0.17165,0.0290705,-0.972931,-1.40896,-8.8174,-0.447155,0.171277,0.333997,39.16,99.446,0.025001,0.0330635,-0.248781,0.0347101,-0.0230001,-0.0317733,-0.225765,0.365352,0.326577,0.317337,0.0800963,0.21109,-8.97927,-0.150422,0.0743206,0.828366,0.0800963,0.21109,0.814473,
2.2581,-124.221,-5.08965,8.76465,-0.00342171,-0.0881784,-0.878812,0.468938,0.0355815,-0.175838,0.0251923,-0.983338,-1.30646,-9.00806,-0.444678,0.172616,0.338227,39.16,99.446,0.025,0.0231868,-0.267543,0.036455,-0.020421,-0.0342403,-0.228395,0.365535,0.325734,0.319708,0.164041,0.096426,-9.15329,-0.114491,0.179992,0.633156,0.164041,0.096426,0.640456,
2.28323,-124.274,-5.64687,8.85539,-0.00738088,-0.0911206,-0.878582,0.468761,0.0466741,-0.152938,-0.00870696,-0.894463,-1.33775,-10.1963,-0.438452,0.170026,0.337111,39.145,99.442,0.025,0.0540084,-0.262708,0.0184063,-0.0211519,-0.0370242,-0.24625,0.361567,0.324387,0.314381,0.13639,-0.239938,-10.3188,0.0692122,0.162598,-0.566244,0.13639,-0.239938,-0.52506,
2.30837,-124.304,-5.82672,8.91143,-0.0085602,-0.092273,-0.878533,0.468606,0.0599154,-0.0806494,-0.0106593,-0.824126,-1.5055,-10.1456,-0.439715,0.172619,0.334235,39.16,99.458,0.025001,0.0547642,-0.179667,0.00378292,-0.0207961,-0.0389748,-0.249929,0.36506,0.324357,0.310456,-0.0551198,-0.23036,-10.287,0.170137,0.00378187,-0.520042,-0.0551198,-0.23036,-0.493255,
2.33354,-124.339,-5.89592,8.94489,-0.00898441,-0.0928055,-0.8786,0.468368,0.013265,-0.0190763,-0.0111487,-1.09866,-1.62698,-9.78134,-0.437211,0.168679,0.327459,39.16,99.458,0.024999,0.0316302,-0.0711396,-0.01812,-0.0222378,-0.0381916,-0.250899,0.361129,0.323492,0.302942,-0.0293737,0.110077,-9.97575,-0.0926262,-0.11226,-0.157876,-0.0293737,0.110077,-0.182008,
2.35869,-124.38,-5.87343,8.94099,-0.00886071,-0.0926819,-0.878789,0.468041,-0.0495311,0.0409827,-0.0392018,-1.22448,-1.75183,-9.76284,-0.438481,0.172592,0.327334,39.16,99.446,0.025001,-0.00649518,0.0185614,-0.0387932,-0.0230687,-0.0391359,-0.251431,0.365263,0.322009,0.303471,-0.0611856,0.288182,-9.98972,-0.222276,-0.237703,-0.138889,-0.0611856,0.288182,-0.195976,
2.38383,-124.429,-5.75076,8.91792,-0.00804907,-0.0920081,-0.879091,0.46762,-0.0473878,0.0993245,-0.0511985,-1.09282,-1.17761,-9.94316,-0.438476,0.172619,0.332891,39.16,99.446,0.024999,-0.026305,0.116497,-0.0611861,-0.022578,-0.0368816,-0.251785,0.3649,0.322001,0.3099,0.359708,-0.14381,-10.0647,-0.111472,0.332968,-0.316497,0.359708,-0.14381,-0.27091,
2.40898,-124.475,-5.59176,8.88074,-0.00701273,-0.0910806,-0.879421,0.467198,-0.0101906,0.112941,-0.0372831,-0.741558,-1.10347,-9.74274,-0.437181,0.164781,0.331708,39.16,99.458,0.025001,-0.0400098,0.152809,-0.0647568,-0.0228515,-0.0369055,-0.246554,0.357764,0.323885,0.308891,0.218586,-0.412736,-9.82194,0.212741,0.401275,-0.112449,0.218586,-0.412736,-0.0281897,
2.43411,-124.52,-5.43735,8.83115,-0.00606091,-0.090077,-0.879751,0.466785,-0.0237546,0.0991086,-0.047072,-0.582598,-1.65231,-9.50272,-0.440908,0.164756,0.330187,39.145,99.446,0.024999,-0.0522689,0.148389,-0.063007,-0.0212615,-0.0379604,-0.241561,0.359989,0.325554,0.308206,-0.332414,-0.176544,-9.65554,0.345431,-0.15551,0.131379,-0.332414,-0.176544,0.138203,
2.45924,-124.558,-5.28606,8.78955,-0.00509345,-0.0891481,-0.880037,0.466434,-0.0420196,0.0888819,-0.0489715,-0.776701,-1.78841,-9.52022,-0.44221,0.173907,0.332731,39.16,99.433,0.025,-0.0435439,0.14663,-0.0545884,-0.021477,-0.0373803,-0.235266,0.368013,0.320952,0.313146,-0.324752,0.0797173,-9.71208,0.12558,-0.29824,0.117349,-0.324752,0.0797173,0.0816679,
2.4844,-124.589,-5.14038,8.7637,-0.00409939,-0.0883633,-0.880279,0.466138,-0.0180029,0.0945453,-0.0389744,-0.720992,-1.44234,-9.59467,-0.440929,0.168702,0.335662,39.16,99.446,0.025,-0.0270833,0.142225,-0.0470877,-0.0225698,-0.0374756,-0.232449,0.36264,0.322281,0.316503,-0.05592,-0.14511,-9.72799,0.15649,0.0438306,0.0458034,-0.05592,-0.14511,0.0657587,
2.5096,-124.606,-4.98348,8.74686,-0.00297141,-0.0876035,-0.880463,0.465941,-0.00440639,0.106924,-0.0273373,-0.78759,-1.29787,-9.41238,-0.444785,0.185619,0.325455,39.16,99.446,0.025001,-0.0166907,0.155417,-0.0354059,-0.0226645,-0.0346823,-0.228994,0.37918,0.313642,0.309937,0.0991848,-0.11784,-9.53278,0.0631779,0.185831,0.230871,0.0991848,-0.11784,0.260963,
2.53479,-124.604,-4.85316,8.74905,-0.00195633,-0.0870971,-0.880538,0.4659,0.0124519,0.0810281,-0.00874347,-0.933196,-1.28676,-9.12664,-0.447266,0.184274,0.319838,39.16,99.446,0.024999,0.00389015,0.132062,-0.01269,-0.0221996,-0.035314,-0.222902,0.379495,0.314984,0.305072,0.181107,0.0574534,-9.26208,-0.104622,0.197598,0.518441,0.181107,0.0574534,0.531669,
2.55998,-124.601,-4.79034,8.75565,-0.00144311,-0.0868955,-0.880562,0.465894,0.0126287,0.0346823,-0.00486853,-0.960409,-1.26565,-9.09108,-0.448507,0.184275,0.321184,39.16,99.446,0.025001,0.00838032,0.0656683,-0.00163881,-0.0235089,-0.0354085,-0.22015,0.379856,0.315974,0.30683,0.217678,0.081407,-9.22594,-0.142536,0.219952,0.554726,0.217678,0.081407,0.567807,
2.58518,-124.613,-4.77771,8.76225,-0.00132751,-0.0868954,-0.880611,0.465802,0.0104432,0.000546305,-0.0134599,-0.86469,-1.25939,-9.05175,-0.448465,0.177723,0.317151,39.145,99.454,0.024999,0.00726274,0.0137912,-0.00772323,-0.0209985,-0.0343704,-0.220763,0.374765,0.31882,0.301987,0.167583,0.00655222,-9.17822,-0.048968,0.22735,0.59406,0.167583,0.00655222,0.615521,
2.61038,-124.641,-4.83328,8.76661,-0.00175982,-0.0871517,-0.880688,0.465608,0.000614336,-0.0595521,-0.0168354,-0.917527,-1.28129,-8.89687,-0.44845,0.175105,0.315817,39.16,99.458,0.025001,0.00364188,-0.0561436,-0.0140486,-0.0225602,-0.0331243,-0.218978,0.373015,0.320115,0.299825,0.16297,0.078166,-9.03356,-0.0923388,0.206063,0.748035,0.16297,0.078166,0.760181,
2.6356,-124.682,-4.98065,8.77261,-0.00290299,-0.0877881,-0.880754,0.465358,0.00818316,-0.115255,-0.0204903,-0.869061,-1.58563,-9.03122,-0.445973,0.177783,0.326964,39.16,99.433,0.024999,0.00409365,-0.148596,-0.0121199,-0.0239748,-0.0366902,-0.219008,0.37359,0.318753,0.310211,-0.116232,0.165396,-9.20824,-0.0187748,-0.0975886,0.6114,-0.116232,0.165396,0.585508,
2.66079,-124.729,-5.16219,8.79488,-0.00424898,-0.0886853,-0.880809,0.465073,0.027239,-0.123234,-0.0176799,-1.03365,-1.47585,-9.2392,-0.444748,0.179062,0.320035,39.15,99.446,0.025001,0.0197127,-0.183479,-0.0130095,-0.0222878,-0.0354127,-0.225481,0.375173,0.316517,0.30224,0.0692066,0.18032,-9.41127,-0.15245,0.015514,0.400136,0.0692066,0.18032,0.382473,
2.686,-124.769,-5.36146,8.82581,-0.00569253,-0.089719,-0.880817,0.464843,0.0243812,-0.14363,-0.0112446,-1.22035,-1.40947,-9.30994,-0.441044,0.181679,0.317335,39.16,99.458,0.024999,0.0287721,-0.200062,-0.00412275,-0.0243549,-0.0352868,-0.228985,0.376087,0.312308,0.298748,0.220441,0.255017,-9.48879,-0.305236,0.0866222,0.325506,0.220441,0.255017,0.304956,
2.71118,-124.796,-5.55958,8.85514,-0.00712338,-0.0907352,-0.880769,0.464719,0.0166442,-0.134757,0.0122417,-0.8777,-1.09938,-9.63525,-0.442365,0.19345,0.321215,39.16,99.446,0.025001,0.0284011,-0.196861,0.00943612,-0.0233599,-0.036633,-0.234388,0.386804,0.308316,0.302676,0.288778,-0.280035,-9.72909,0.071126,0.401147,-0.00376144,0.288778,-0.280035,0.0646524,
2.73637,-124.818,-5.687,8.89033,-0.00798174,-0.0915134,-0.880743,0.4646,0.0201956,-0.0689828,-0.000283257,-0.653177,-1.60893,-9.70376,-0.435951,0.166108,0.334506,39.155,99.454,0.024999,0.0345448,-0.12635,0.00308101,-0.0228694,-0.0394668,-0.239095,0.360134,0.320927,0.311205,-0.259247,-0.215218,-9.85215,0.317325,-0.102822,-0.0753066,-0.259247,-0.215218,-0.058403,
2.76153,-124.835,-5.75005,8.93038,-0.00831934,-0.0920719,-0.880735,0.464499,0.0113018,-0.0467883,-0.0083627,-0.772075,-1.73366,-9.4426,-0.438594,0.18829,0.33118,39.16,99.446,0.025001,0.0399825,-0.0620494,-0.00127401,-0.0240042,-0.0385803,-0.241081,0.380145,0.310611,0.310659,-0.313044,-0.0177053,-9.62632,0.20915,-0.220988,0.183748,-0.313044,-0.0177053,0.167429,
2.78667,-124.84,-5.81293,8.96907,-0.00865201,-0.0926199,-0.880681,0.464487,0.000201005,-0.0534615,-0.0122753,-1.11437,-1.73212,-9.62304,-0.437244,0.172607,0.32877,39.16,99.446,0.024999,0.0397219,-0.0598823,0.0100371,-0.0262277,-0.0372614,-0.241162,0.366723,0.318133,0.305567,-0.105187,0.217694,-9.83802,-0.122453,-0.213116,0.00120676,-0.105187,0.217694,-0.0442705,
2.81181,-124.844,-5.8659,8.99226,-0.00896984,-0.0930093,-0.88064,0.464481,0.0528168,-0.0176668,0.0145961,-1.02614,-1.50616,-9.82977,-0.442276,0.180381,0.320097,39.16,99.446,0.025,0.0247255,-0.0503077,0.00999052,-0.0221804,-0.0373166,-0.243528,0.376636,0.316755,0.297353,0.0425562,-0.0242076,-9.99717,-0.0252139,0.0165997,-0.207046,0.0425562,-0.0242076,-0.203426,
2.83695,-124.861,-5.85963,8.98192,-0.00897738,-0.0929034,-0.880722,0.464345,0.000556292,0.0245418,-0.00108434,-0.968236,-1.29268,-9.68591,-0.442246,0.175129,0.314649,39.16,99.446,0.025,-0.0104734,0.00593125,-0.012422,-0.0201475,-0.037213,-0.244162,0.372825,0.318513,0.291216,0.173602,-0.162554,-9.81676,0.0316233,0.228357,-0.0628041,0.173602,-0.162554,-0.023016,
2.86205,-124.882,-5.83508,8.95389,-0.00891796,-0.0925884,-0.880845,0.464177,-0.0535192,0.0134598,-0.00736236,-1.12989,-1.52089,-9.59591,-0.441011,0.176448,0.316055,39.16,99.458,0.025001,-0.0284478,0.0236929,-0.0184075,-0.0236974,-0.0371658,-0.242356,0.373279,0.316683,0.29307,0.070673,0.116862,-9.78022,-0.134201,-0.00449722,0.0283586,0.070673,0.116862,0.0135279,
2.88718,-124.915,-5.79325,8.94209,-0.00866989,-0.0923283,-0.88102,0.463901,-0.0150473,0.0557513,-0.0412317,-0.880727,-1.47646,-9.74678,-0.438382,0.154206,0.306879,39.16,99.446,0.024999,-0.0137745,0.0390253,-0.0341198,-0.0237877,-0.0408375,-0.242463,0.35433,0.324824,0.281198,-0.0216861,-0.129752,-9.89636,0.107844,0.0380632,-0.121479,-0.0216861,-0.129752,-0.102618,
2.91236,-124.95,-5.70773,8.92317,-0.00811395,-0.0918394,-0.881235,0.4636,-0.014434,0.0828102,-0.0389897,-0.809172,-1.64348,-9.66711,-0.439613,0.151554,0.299943,39.16,99.446,0.025,-0.0207033,0.0817881,-0.0417318,-0.0231248,-0.0385827,-0.243562,0.353394,0.325499,0.274514,-0.199119,-0.0682272,-9.8369,0.164855,-0.131905,-0.0398697,-0.199119,-0.0682272,-0.0431547,
2.9375,-124.972,-5.59439,8.89994,-0.00735009,-0.0912075,-0.88142,0.463385,0.00401107,0.0875702,-0.0295647,-0.995551,-1.20705,-9.86134,-0.439574,0.147689,0.311138,39.16,99.446,0.025,-0.0236344,0.111191,-0.0335152,-0.0227024,-0.0362633,-0.241799,0.349323,0.328826,0.285816,0.286069,-0.17222,-9.97911,-0.040804,0.30092,-0.231594,0.286069,-0.17222,-0.18536,
2.96264,-124.998,-5.47565,8.87769,-0.00654419,-0.0905616,-0.881627,0.46313,0.000819658,0.0879679,-0.0450329,-0.796128,-1.58101,-9.54181,-0.442073,0.148957,0.305466,39.17,99.45,0.025001,-0.0232878,0.116098,-0.0391547,-0.0226544,-0.0386552,-0.238494,0.352113,0.328496,0.281129,-0.148115,-0.0554624,-9.70332,0.138418,-0.0764776,0.0904535,-0.148115,-0.0554624,0.0904217,
2.98786,-125.029,-5.33983,8.86114,-0.00558589,-0.0898916,-0.881854,0.46284,-0.0212084,0.102579,-0.0431191,-0.732019,-1.89775,-9.38957,-0.448261,0.146328,0.308078,39.16,99.458,0.024999,-0.0179554,0.132221,-0.0453989,-0.0216451,-0.0398826,-0.238155,0.353176,0.334639,0.283807,-0.443916,0.113631,-9.59643,0.179414,-0.395669,0.245284,-0.443916,0.113631,0.197317,
3.01311,-125.044,-5.18087,8.82663,-0.00450913,-0.0889921,-0.882048,0.462657,-0.0641999,0.102692,-0.0242977,-0.803209,-1.3152,-9.65212,-0.438366,0.151587,0.305545,39.16,99.458,0.025,-0.0343118,0.157384,-0.0338626,-0.0217559,-0.0339572,-0.239037,0.351796,0.322381,0.284274,0.102871,-0.169328,-9.77236,0.081168,0.181467,-0.0138974,0.102871,-0.169328,0.0213842,
3.03826,-125.034,-5.02787,8.78415,-0.00349094,-0.0880558,-0.882141,0.462669,-0.00730005,0.105317,0.00995738,-0.821578,-1.18583,-9.6462,-0.438301,0.143796,0.315431,39.16,99.446,0.025,-0.0395109,0.155735,-0.00823954,-0.0228891,-0.0349293,-0.237481,0.34435,0.327524,0.293994,0.2277,-0.19986,-9.74878,0.0367482,0.304043,-0.0045756,0.2277,-0.19986,0.0449686,
3.06345,-125.037,-4.87108,8.73199,-0.00249293,-0.0870291,-0.882295,0.462575,-0.0366404,0.127615,-0.0292475,-0.889596,-1.4676,-9.78181,-0.445774,0.145007,0.302638,39.16,99.446,0.025001,-0.0514364,0.157404,-0.0218413,-0.0224929,-0.0398193,-0.237659,0.350389,0.330092,0.282131,0.0548635,0.018297,-9.93105,-0.0579696,0.0138483,-0.136542,0.0548635,0.018297,-0.1373,
3.0886,-125.07,-4.65158,8.68375,-0.00101644,-0.0857822,-0.882601,0.462229,-0.0839069,0.175229,-0.0685308,-0.803028,-1.97927,-8.97861,-0.444566,0.150251,0.305351,39.16,99.446,0.024999,-0.049407,0.21497,-0.060176,-0.0201556,-0.0392329,-0.234008,0.35355,0.325344,0.287414,-0.459495,0.391447,-9.20942,-0.0087916,-0.50548,0.67098,-0.459495,0.391447,0.584325,
3.11374,-125.096,-4.39592,8.66889,0.000880148,-0.0846486,-0.882871,0.461922,0.0283425,0.154911,-0.0365577,-0.713332,-1.63373,-9.20119,-0.450991,0.182946,0.318347,39.16,99.458,0.025001,-0.0147727,0.251675,-0.0584906,-0.0191574,-0.0334107,-0.233772,0.382332,0.312982,0.30671,-0.189513,0.12726,-9.36951,0.0373391,-0.16192,0.452185,-0.189513,0.12726,0.424232,
3.13889,-125.121,-4.19014,8.65168,0.00238274,-0.083696,-0.883107,0.46164,0.0533035,0.113257,-0.0319411,-0.795223,-1.20642,-9.17906,-0.448444,0.17516,0.326932,39.16,99.446,0.024999,-0.0173845,0.202775,-0.0503101,-0.0218184,-0.0327913,-0.230969,0.37341,0.315381,0.315861,0.221029,-0.0126801,-9.28946,-0.0796286,0.262883,0.47736,0.221029,-0.0126801,0.504288,
3.16404,-125.148,-4.06416,8.61293,0.00318031,-0.082896,-0.883319,0.461373,0.0490751,0.0682412,-0.0299404,-0.620241,-0.816944,-9.22693,-0.448566,0.190782,0.315495,39.15,99.458,0.025,-0.0390435,0.123499,-0.0408097,-0.019424,-0.0326928,-0.227716,0.387086,0.304193,0.307861,0.448357,-0.36039,-9.26593,0.0738764,0.646065,0.432019,0.448357,-0.36039,0.527819,
3.18921,-125.191,-3.98464,8.58255,0.00364207,-0.0823462,-0.883558,0.46101,0.0399038,0.028316,-0.0436825,-0.434998,-1.59819,-9.04588,-0.449716,0.17906,0.324029,39.16,99.446,0.025,-0.0316599,0.0751723,-0.0485241,-0.0157607,-0.0355427,-0.228968,0.377626,0.312178,0.315033,-0.305907,-0.0341167,-9.19112,0.24556,-0.140159,0.614784,-0.305907,-0.0341167,0.602628,
3.21449,-125.227,-3.99187,8.53376,0.00336389,-0.0819999,-0.883735,0.460735,-0.0128869,-0.0443832,-0.00113164,-0.529932,-1.61785,-8.91317,-0.454762,0.188113,0.309772,39.18,99.462,0.025001,-0.0495824,-0.00949035,-0.0293282,-0.0191872,-0.0320745,-0.228723,0.389516,0.308797,0.301788,-0.285166,0.0768832,-9.06949,0.151859,-0.168059,0.748648,-0.285166,0.0768832,0.724257,
3.23974,-125.269,-4.06491,8.48893,0.00258875,-0.0819459,-0.883895,0.460444,-0.120591,-0.0849688,-0.0309027,-0.941914,-1.99727,-8.94652,-0.456075,0.195871,0.294285,39.16,99.446,0.024999,-0.0463633,-0.0754171,-0.025347,-0.0184942,-0.0337192,-0.228696,0.398481,0.303165,0.286841,-0.366279,0.615967,-9.1871,-0.24767,-0.555172,0.715566,-0.366279,0.615967,0.606643,
3.26499,-125.294,-4.16594,8.4704,0.00171508,-0.0822051,-0.88395,0.460296,0.00380188,-0.0420968,0.00642491,-0.850173,-0.48975,-9.77068,-0.459872,0.204972,0.288408,39.16,99.471,0.025001,-0.0184395,-0.100686,-0.00416642,-0.014772,-0.0277375,-0.233254,0.40904,0.300467,0.281213,0.860558,-0.436875,-9.77228,-0.138703,0.949042,-0.109363,0.860558,-0.436875,0.0214624,
3.2902,-125.317,-4.20476,8.43408,0.0012525,-0.0820796,-0.884045,0.460136,0.0494252,-0.00951162,-0.0121639,0.107112,-1.22341,-9.52631,-0.458516,0.190668,0.301252,39.16,99.446,0.024999,-0.0360277,-0.0393239,-0.0114622,-0.00961108,-0.0384634,-0.235639,0.396015,0.309136,0.291463,-0.316156,-0.769806,-9.56902,0.825199,0.209183,0.135448,-0.316156,-0.769806,0.224726,
3.31539,-125.362,-4.13559,8.42355,0.00171316,-0.0817241,-0.884273,0.45976,-0.0913662,0.0647126,-0.0613765,-0.914764,-2.00395,-9.38676,-0.456015,0.189407,0.308312,39.16,99.446,0.025001,-0.012606,0.064504,-0.0490773,-0.0167663,-0.0358206,-0.239578,0.393081,0.308188,0.298979,-0.367,0.532143,-9.62009,-0.208468,-0.573002,0.276102,-0.367,0.532143,0.173658,
3.34058,-125.418,-4.01082,8.44845,0.00273876,-0.0814221,-0.884551,0.459274,0.0601936,0.0957343,-0.0470792,-0.706844,-1.29961,-9.23723,-0.45723,0.185482,0.308349,39.16,99.433,0.025,0.0229866,0.118006,-0.0681392,-0.0140408,-0.0332989,-0.236201,0.390401,0.31057,0.29946,0.0888919,0.00141871,-9.35453,-0.0218224,0.135756,0.426512,0.0888919,0.00141871,0.43922,
3.36578,-125.475,-3.89895,8.43872,0.00352541,-0.0809048,-0.884849,0.458785,-0.0312687,0.0529604,-0.039876,-1.20978,-1.24843,-9.51583,-0.458586,0.199786,0.295506,39.16,99.446,0.025,-0.0121663,0.105282,-0.0672566,-0.0198336,-0.0301103,-0.236818,0.403838,0.30088,0.289698,0.453348,0.357796,-9.65607,-0.543833,0.185486,0.14946,0.453348,0.357796,0.137678,
3.39099,-125.52,-3.86507,8.39217,0.00356968,-0.0804124,-0.885081,0.458424,-0.0490477,-0.00627577,-0.0284916,-0.392553,-1.85666,-9.40783,-0.458562,0.1972,0.301116,39.16,99.433,0.024999,-0.0476957,0.0299396,-0.0441486,-0.0186203,-0.0358401,-0.234931,0.401623,0.30249,0.29502,-0.524988,0.0627165,-9.58274,0.267614,-0.430539,0.259012,-0.524988,0.0627165,0.211001,
3.41616,-125.556,-3.86703,8.34615,0.00334548,-0.0800658,-0.885255,0.458151,0.00112314,-0.00481678,-0.0274284,-0.0112185,-1.35806,-9.39068,-0.458464,0.184171,0.308334,39.16,99.446,0.025001,-0.0466697,-0.00411896,-0.0294661,-0.0148622,-0.0343233,-0.235732,0.390835,0.310403,0.300126,-0.349803,-0.522776,-9.46751,0.649284,0.0602978,0.27728,-0.349803,-0.522776,0.32624,
3.44136,-125.581,-3.86215,8.30578,0.00320433,-0.0797353,-0.885386,0.457955,0.0343755,0.0199476,-0.0170191,-0.394134,-0.746228,-9.65154,-0.457222,0.184177,0.308377,39.16,99.458,0.024999,-0.0403915,0.00415284,-0.0202055,-0.016425,-0.0330494,-0.237681,0.390423,0.309064,0.300197,0.383667,-0.590848,-9.66272,0.265535,0.665324,0.0174744,0.383667,-0.590848,0.131029,
3.46656,-125.588,-3.86795,8.25962,0.00297053,-0.0794018,-0.885441,0.457909,0.0328462,0.0151358,0.00402419,-0.771654,-0.325515,-9.85418,-0.458431,0.178925,0.304273,39.16,99.446,0.025,-0.044959,-0.00362144,-0.000138792,-0.018022,-0.0319839,-0.236747,0.387455,0.312281,0.295152,0.95264,-0.547796,-9.82846,-0.110996,1.07824,-0.184097,0.95264,-0.547796,-0.0347147,
3.49179,-125.586,-3.88435,8.20671,0.00263314,-0.0790578,-0.885462,0.45793,0.0135128,0.0102822,-0.00270084,-0.741874,-0.387406,-9.95959,-0.458513,0.190689,0.30542,39.155,99.446,0.025,-0.0513268,-0.0128981,0.00927995,-0.0196375,-0.0346234,-0.236099,0.39723,0.30572,0.297694,0.884288,-0.548355,-9.94038,-0.078418,1.00739,-0.288405,0.884288,-0.548355,-0.146639,
3.51696,-125.6,-3.86926,8.16372,0.00256867,-0.0786662,-0.885556,0.457817,0.0194658,0.0343492,-0.0153223,-0.684332,-0.365826,-9.86594,-0.455963,0.18157,0.308476,39.16,99.433,0.025001,-0.0425865,0.0158773,-0.0104736,-0.0156966,-0.0377099,-0.234811,0.38835,0.308942,0.29961,0.856498,-0.588273,-9.84171,-0.02345,1.02174,-0.193543,0.856498,-0.588273,-0.0479689,
3.54218,-125.619,-3.78592,8.13759,0.00309692,-0.0781349,-0.885695,0.457635,0.0552736,0.0873329,-0.0232527,-0.474831,-0.346135,-9.87982,-0.462177,0.181521,0.304088,39.165,99.438,0.024999,-0.0257006,0.0825366,-0.0252384,-0.0140186,-0.0350302,-0.237148,0.392228,0.312841,0.295491,0.756257,-0.757357,-9.83924,0.171837,1.03715,-0.20585,0.756257,-0.757357,-0.0454969,
3.5675,-125.626,-3.6683,8.1024,0.00386272,-0.0773976,-0.885811,0.45753,0.0544684,0.099033,-0.018406,-0.487485,-0.586303,-9.48611,-0.462191,0.182807,0.299894,39.16,99.446,0.025,-0.03378,0.118247,-0.0185182,-0.0151945,-0.0334767,-0.234789,0.39345,0.310894,0.292434,0.545242,-0.537954,-9.48583,0.139121,0.791226,0.190008,0.545242,-0.537954,0.307916,
3.5927,-125.621,-3.54863,8.05192,0.00459206,-0.0765335,-0.885886,0.457524,0.0225129,0.0764651,0.00361667,-0.506113,-1.24589,-9.20271,-0.463534,0.198517,0.307861,39.16,99.446,0.025,-0.048374,0.122171,-0.00596602,-0.01842,-0.0314737,-0.232692,0.406172,0.303451,0.303303,0.00448638,-0.0888988,-9.30002,0.100078,0.123297,0.475891,0.00448638,-0.0888988,0.493728,
3.6179,-125.612,-3.45513,8.00999,0.00515505,-0.0758387,-0.885926,0.457555,-0.020634,0.0582995,0.014129,-0.86431,-1.55106,-9.16122,-0.460947,0.182827,0.302717,39.16,99.458,0.025001,-0.0398525,0.0968832,0.00109357,-0.0173913,-0.0294815,-0.230729,0.392223,0.309137,0.296869,-0.0344213,0.397335,-9.32318,-0.274072,-0.188822,0.519347,-0.0344213,0.397335,0.470564,
3.64311,-125.601,-3.42497,7.94679,0.00514354,-0.0752302,-0.88594,0.45763,-0.014997,0.0202488,0.00934222,-0.909974,-1.49393,-9.09754,-0.462184,0.181502,0.299923,39.16,99.446,0.025,-0.0609019,0.034754,0.0119211,-0.0178829,-0.0358827,-0.228264,0.392222,0.310269,0.293949,0.0278873,0.419996,-9.25461,-0.324882,-0.142332,0.584834,0.0278873,0.419996,0.539131,
3.66839,-125.623,-3.43771,7.86344,0.00469732,-0.0746372,-0.886077,0.457465,-0.115637,-0.0165012,-0.0108313,-0.813065,-1.91255,-8.98583,-0.462223,0.18672,0.298425,39.15,99.433,0.025,-0.0832795,-0.0125648,-0.0150805,-0.0199534,-0.035146,-0.233743,0.39712,0.306749,0.29287,-0.388017,0.600543,-9.19527,-0.225798,-0.575057,0.698365,-0.388017,0.600543,0.59848,
3.69361,-125.642,-3.46912,7.81539,0.00425005,-0.0743907,-0.886167,0.457336,-0.0977405,-0.00204488,-0.0208447,-0.698377,-1.04395,-9.90667,-0.465914,0.181478,0.298402,39.17,99.438,0.024999,-0.047546,-0.0302966,-0.00880187,-0.016318,-0.0257655,-0.235602,0.39543,0.31257,0.291529,0.309396,-0.105423,-9.98062,-0.105751,0.285378,-0.221673,0.309396,-0.105423,-0.186875,
3.71881,-125.629,-3.51718,7.71502,0.00348556,-0.0738044,-0.886155,0.457461,-0.0485659,-0.0287107,0.0163294,-0.207301,-1.08394,-9.33083,-0.460938,0.181534,0.305524,39.16,99.433,0.025001,-0.0975049,-0.0431239,0.0250303,-0.0129667,-0.0367293,-0.234263,0.392575,0.309361,0.298235,-0.0700243,-0.404117,-9.38691,0.393524,0.228351,0.355983,-0.0700243,-0.404117,0.406836,
3.74401,-125.603,-3.54809,7.65116,0.00300767,-0.0734322,-0.886076,0.457676,-0.028684,-0.0415769,0.0207151,-0.74615,-1.04041,-9.74071,-0.460902,0.176302,0.304242,39.16,99.433,0.024999,-0.0606585,-0.0241989,0.0351936,-0.0156478,-0.0237554,-0.238948,0.38865,0.312241,0.29586,0.29681,-0.0419329,-9.81992,-0.140051,0.261039,-0.0527657,0.29681,-0.0419329,-0.0261745,
3.76942,-125.587,-3.5972,7.51305,0.00208579,-0.0725586,-0.886075,0.457824,-0.0687536,-0.0168752,0.0217735,-0.625074,-1.35225,-9.53671,-0.459684,0.178894,0.298676,39.17,99.425,0.025,-0.135191,-0.0437821,0.0279302,-0.0134569,-0.03702,-0.234013,0.391119,0.308913,0.290032,-0.0648311,0.0704145,-9.65189,-0.0105976,-0.0742234,0.153828,-0.0648311,0.0704145,0.141856,
3.79463,-125.591,-3.61078,7.46067,0.00176826,-0.0722075,-0.88612,0.457793,-0.0656668,-0.000462075,-0.0343654,-0.366787,-1.71101,-9.40832,-0.467184,0.184037,0.28858,39.16,99.433,0.025,-0.051259,-0.0113722,0.0024987,-0.0113144,-0.0339459,-0.236937,0.400644,0.310637,0.279995,-0.523204,0.084934,-9.55497,0.250007,-0.441858,0.283241,-0.523204,0.084934,0.238771,
3.81984,-125.618,-3.64227,7.4407,0.00142779,-0.0721781,-0.886222,0.4576,0.00090843,-0.0522388,-0.0193561,-0.469465,-0.789249,-9.48052,-0.465913,0.181477,0.298402,39.16,99.446,0.025001,-0.0204765,-0.0317349,-0.0167326,-0.0167383,-0.0292138,-0.23912,0.397476,0.312186,0.289148,0.28313,-0.369113,-9.51353,0.1527,0.476479,0.211139,0.28313,-0.369113,0.280218,
3.84504,-125.671,-3.66491,7.40018,0.00105723,-0.0719549,-0.886448,0.4572,-0.0338645,-0.00882436,-0.0305399,-0.856058,-1.40215,-9.3499,-0.459717,0.184139,0.302735,39.16,99.446,0.025,-0.0418401,-0.0261106,-0.0441013,-0.0175496,-0.033303,-0.235223,0.396269,0.305778,0.293882,-0.00545061,0.311755,-9.488,-0.230031,-0.143312,0.342415,-0.00545061,0.311755,0.305744,
3.87026,-125.751,-3.68256,7.31808,0.000543017,-0.0713901,-0.886809,0.456588,-0.0773164,-0.0123777,-0.073803,-0.699764,-1.00858,-9.58141,-0.469662,0.18406,0.295438,39.16,99.446,0.024999,-0.0851771,-0.0249133,-0.0715527,-0.0138491,-0.0270289,-0.236475,0.403333,0.312195,0.285657,0.225176,-0.0639274,-9.65689,-0.0707256,0.236351,0.112501,0.225176,-0.0639274,0.136855,
3.89551,-125.817,-3.69906,7.21412,-3.99812e-05,-0.0706507,-0.887129,0.456082,-0.067785,-0.0515922,-0.0260842,-0.273311,-0.553833,-9.67533,-0.463513,0.189208,0.273323,39.16,99.446,0.025,-0.10622,-0.0223896,-0.0578515,-0.0119861,-0.0248408,-0.239914,0.406196,0.300743,0.264402,0.33428,-0.67412,-9.66578,0.358543,0.673481,0.0206413,0.33428,-0.67412,0.127965,
3.92081,-125.881,-3.68328,7.073,-0.000518165,-0.0694955,-0.887478,0.455579,-0.122867,0.0184753,-0.0457666,-1.01004,-1.11691,-9.842,-0.460908,0.174944,0.293158,39.18,99.438,0.025001,-0.143239,0.0103746,-0.0601317,-0.0160547,-0.0256358,-0.241007,0.392767,0.308338,0.282214,0.30167,0.24049,-9.94906,-0.380874,0.0865386,-0.142861,0.30167,0.24049,-0.155314,
3.946,-125.928,-3.68245,6.91156,-0.00118133,-0.0682414,-0.887761,0.455216,-0.103655,-0.000860826,-0.037842,-0.556635,-1.3093,-9.34299,-0.460868,0.171078,0.304352,39.16,99.433,0.024999,-0.162182,-0.00207224,-0.0408977,-0.0138308,-0.0289022,-0.235169,0.389893,0.311042,0.292461,-0.17163,0.0621964,-9.44893,0.072385,-0.133179,0.359507,-0.17163,0.0621964,0.344813,
3.9712,-125.923,-3.68791,6.74688,-0.00187509,-0.0669872,-0.887837,0.455253,-0.133322,0.00941057,0.0113833,-0.676199,-1.44936,-9.42985,-0.460896,0.173644,0.294573,39.16,99.433,0.025,-0.162789,-0.00205597,0.0107671,-0.0155818,-0.0322196,-0.236878,0.393275,0.307897,0.28264,-0.232343,0.244278,-9.55857,-0.0462486,-0.301138,0.275934,-0.232343,0.244278,0.235175,
3.99646,-125.918,-3.66189,6.60664,-0.00222748,-0.065798,-0.887912,0.455278,-0.0591191,0.0328812,-0.0185409,-0.647742,-0.639334,-9.70807,-0.463495,0.187942,0.281685,39.16,99.446,0.025001,-0.137812,0.029074,0.00709259,-0.011543,-0.0270585,-0.236041,0.407588,0.29968,0.27122,0.405361,-0.261774,-9.73869,-0.0222302,0.485159,0.000774577,0.405361,-0.261774,0.0550528,
4.02166,-125.943,-3.59785,6.42544,-0.00246419,-0.0641407,-0.888143,0.455062,-0.205499,0.0404331,-0.051439,-0.565358,-1.89544,-9.03941,-0.462142,0.173618,0.290362,39.16,99.433,0.024999,-0.181369,0.0636593,-0.0265145,-0.0155868,-0.0305971,-0.23546,0.395449,0.306862,0.27836,-0.713403,0.501483,-9.2121,0.0492294,-0.801581,0.673634,-0.713403,0.501483,0.581644,
4.04685,-125.979,-3.57607,6.23345,-0.00307725,-0.0625658,-0.888403,0.45477,-0.0994169,0.0168134,-0.0331981,-1.00346,0.217345,-10.0437,-0.458402,0.173702,0.304386,39.16,99.433,0.025,-0.192134,0.0213348,-0.0330475,-0.0228204,-0.0209352,-0.237596,0.393552,0.304426,0.292229,1.28071,-0.459935,-10.0039,-0.392585,1.27868,-0.326781,1.28071,-0.459935,-0.210135,
4.07208,-126.01,-3.59168,5.96675,-0.00427322,-0.0605583,-0.888662,0.454526,-0.260854,-0.0125082,-0.0248379,-0.6277,-2.52034,-9.33086,-0.462124,0.169652,0.280718,39.17,99.421,0.025001,-0.267346,-0.0152795,-0.0237394,-0.0189254,-0.0366049,-0.236991,0.394981,0.306078,0.2673,-1.22621,0.926693,-9.56288,-0.0141663,-1.50426,0.390698,-1.22621,0.926693,0.230867,
4.09729,-126.063,-3.65291,5.72546,-0.00573331,-0.0589257,-0.888971,0.45412,-0.104843,-0.0436022,-0.0452115,-0.861823,0.347492,-10.2854,-0.468337,0.170955,0.286028,39.165,99.433,0.025,-0.242744,-0.0625391,-0.0412429,-0.0227793,-0.0196506,-0.240841,0.400893,0.310016,0.271204,1.23272,-0.637628,-10.2336,-0.237843,1.32255,-0.560316,1.23272,-0.637628,-0.439869,
4.12249,-126.165,-3.73174,5.4112,-0.00764157,-0.0567913,-0.889497,0.453334,-0.317924,-0.0997687,-0.0813024,-0.882518,-2.508,-8.81068,-0.4646,0.171026,0.297274,39.16,99.446,0.025,-0.319556,-0.0846494,-0.087824,-0.0263228,-0.0359019,-0.234103,0.400397,0.306753,0.281177,-1.17125,1.22075,-9.04627,-0.245091,-1.58638,0.918745,-1.17125,1.22075,0.747476,
4.14769,-126.274,-3.87126,5.16067,-0.00976998,-0.0553859,-0.889988,0.452503,-0.0875478,-0.11224,-0.0358696,-0.676063,0.42092,-9.64174,-0.457087,0.163251,0.303257,39.175,99.446,0.024999,-0.255818,-0.145588,-0.0897526,-0.0216931,-0.016312,-0.242172,0.391554,0.304847,0.285129,1.05417,-0.737951,-9.58861,-0.0148391,1.29985,0.0900529,1.05417,-0.737951,0.205134,
4.17289,-126.431,-4.03574,4.87032,-0.01227,-0.0537596,-0.890676,0.451282,-0.295764,-0.117994,-0.119776,-1.0489,-1.67298,-9.6471,-0.463393,0.174918,0.29029,39.18,99.438,0.025001,-0.300077,-0.174479,-0.137141,-0.0203829,-0.0369131,-0.239681,0.407614,0.30026,0.270726,-0.468514,0.793015,-9.80394,-0.359628,-0.843543,0.0870907,-0.468514,0.793015,-0.0101891,
4.19811,-126.62,-4.24443,4.6674,-0.014781,-0.0529751,-0.89142,0.449829,-0.0838618,-0.167763,-0.0774266,-0.499384,-0.729158,-9.69017,-0.460833,0.163146,0.285066,39.16,99.433,0.024999,-0.214534,-0.220599,-0.164755,-0.0186047,-0.0193832,-0.243671,0.399156,0.303361,0.262473,-0.0823663,-0.214366,-9.72768,0.225467,0.0655871,0.0443264,-0.0823663,-0.214366,0.0660677,
4.22331,-126.811,-4.45134,4.40074,-0.0175259,-0.0516789,-0.892197,0.448337,-0.235788,-0.14999,-0.132217,-0.396903,-0.346538,-10.1566,-0.457143,0.168397,0.286479,39.18,99.438,0.025,-0.279767,-0.218393,-0.168198,-0.0151022,-0.0228158,-0.246102,0.403793,0.296012,0.262176,0.112257,-0.574025,-10.1534,0.363213,0.402689,-0.421165,0.112257,-0.574025,-0.359661,
4.2485,-126.924,-4.62428,4.10029,-0.0200993,-0.0499925,-0.892694,0.447431,-0.222106,-0.120125,-0.0688885,-1.03614,-1.63907,-10.0218,-0.458322,0.159239,0.285235,39.16,99.433,0.025,-0.307301,-0.178087,-0.0941018,-0.0175893,-0.0231075,-0.24657,0.399446,0.301107,0.257977,-0.603496,0.725482,-10.164,-0.246558,-0.941074,-0.284924,-0.603496,0.725482,-0.370217,
4.2737,-126.931,-4.70418,3.80007,-0.0218975,-0.0479625,-0.892811,0.447334,-0.203652,-0.0230867,-0.0390012,-0.484572,-1.85468,-9.73305,-0.457062,0.157979,0.293641,39.15,99.429,0.025001,-0.299554,-0.0776353,0.00447668,-0.00506917,-0.039684,-0.243413,0.399102,0.301002,0.264959,-1.1581,0.46567,-9.84118,0.318625,-1.20778,0.00624731,-1.1581,0.46567,-0.0474329,
4.29896,-126.909,-4.70033,3.64334,-0.0224705,-0.0467306,-0.892794,0.447472,-0.0565709,0.0111416,-0.0574487,-0.297157,-1.79107,-9.77276,-0.462037,0.157922,0.286519,39.165,99.433,0.024999,-0.153654,0.00778994,0.0266417,-0.00385929,-0.0386958,-0.245201,0.402568,0.303876,0.257119,-1.24037,0.290815,-9.85799,0.505384,-1.17082,-0.0316811,-1.24037,0.290815,-0.0642471,
4.32417,-126.903,-4.65483,3.59313,-0.0223092,-0.0461637,-0.892811,0.447503,0.0193575,0.0439406,-0.053357,-0.48708,-1.37974,-10.1075,-0.459536,0.155315,0.285272,39.16,99.421,0.025001,-0.0484886,0.0482715,0.00839424,-0.00781336,-0.0294126,-0.246754,0.399031,0.303021,0.256181,-0.798871,0.174465,-10.1801,0.307709,-0.767979,-0.365274,-0.798871,0.174465,-0.386353,
4.34939,-126.884,-4.55518,3.64135,-0.0213359,-0.0461558,-0.892761,0.447651,-0.0236808,0.0731538,-0.014313,-0.605565,-2.02604,-9.533,-0.460773,0.155336,0.290785,39.175,99.421,0.024999,0.0508733,0.103076,0.0180756,-0.00476359,-0.0401664,-0.24121,0.399209,0.304485,0.262521,-1.2303,0.720497,-9.66006,0.172246,-1.406,0.210102,-1.2303,0.720497,0.133681,
4.37461,-126.854,-4.4217,3.76789,-0.0197878,-0.0466281,-0.892647,0.447901,0.128121,0.124936,-0.015662,-0.304757,-1.26768,-9.71162,-0.460869,0.167032,0.278039,39.17,99.425,0.025001,0.130442,0.137804,0.0274459,-0.015589,-0.0189492,-0.250218,0.407675,0.296463,0.252024,-0.771213,0.0160777,-9.76834,0.450307,-0.626004,0.0318703,-0.771213,0.0160777,0.0254087,
4.39994,-126.828,-4.26877,3.84588,-0.0182799,-0.046645,-0.892582,0.448092,0.122981,0.124864,-0.0370129,-0.651416,0.45014,-10.4651,-0.460903,0.170925,0.272401,39.16,99.433,0.024999,0.0811177,0.156975,0.0202723,-0.0148277,-0.0207026,-0.245925,0.410028,0.293502,0.248159,0.846196,-0.79031,-10.431,0.0775831,1.10521,-0.720539,0.846196,-0.79031,-0.637223,
4.42514,-126.85,-4.00061,3.90378,-0.0159706,-0.0460496,-0.892753,0.447903,-0.0230941,0.216533,-0.0749678,-0.977561,-0.956255,-9.99883,-0.461898,0.138334,0.288314,39.16,99.421,0.025001,0.0575485,0.268871,-0.0338003,-0.0192755,-0.0250646,-0.242618,0.383495,0.314303,0.264114,-0.05398,0.383697,-10.0845,-0.294279,-0.291111,-0.251613,-0.05398,0.383697,-0.290719,
4.45032,-126.984,-3.63212,3.94301,-0.0129958,-0.0449063,-0.893408,0.446807,-0.0378078,0.252682,-0.115504,-1.03794,-1.43343,-9.12739,-0.468043,0.127813,0.279975,39.16,99.446,0.024999,0.03169,0.361449,-0.153919,-0.0237721,-0.0231596,-0.241389,0.378464,0.322572,0.257872,-0.368574,0.844384,-9.25162,-0.417507,-0.76132,0.623548,-0.368574,0.844384,0.542127,
4.47551,-127.197,-3.28033,3.9377,-0.0103514,-0.0434799,-0.894367,0.445097,-0.0329486,0.213408,-0.15325,-1.23892,-0.613494,-9.63838,-0.468047,0.127793,0.275807,39.16,99.446,0.025001,-0.0168767,0.339805,-0.230321,-0.0317857,-0.0273979,-0.249412,0.378787,0.319535,0.256685,0.453372,0.514927,-9.71283,-0.678509,0.0579577,0.116236,0.453372,0.514927,0.0809202,
4.50074,-127.442,-3.01721,3.80658,-0.00889372,-0.0414193,-0.895458,0.443126,-0.0893915,0.146731,-0.195782,-1.11632,-0.896173,-10.4642,-0.47053,0.127782,0.275719,39.18,99.438,0.024999,-0.143361,0.249445,-0.257084,-0.0273998,-0.0212896,-0.254006,0.381441,0.318532,0.258434,0.183321,0.567544,-10.5448,-0.600816,-0.246883,-0.705585,0.183321,0.567544,-0.751044,
4.52596,-127.733,-2.87762,3.5039,-0.00906991,-0.0384931,-0.896729,0.440811,-0.218316,0.0382411,-0.221614,-0.897758,-0.83228,-10.6673,-0.470568,0.133007,0.275611,39.16,99.433,0.025001,-0.31633,0.12398,-0.29289,-0.0243457,-0.0243513,-0.260791,0.387989,0.311999,0.259244,0.0786446,0.393762,-10.7298,-0.406084,-0.234475,-0.90419,0.0786446,0.393762,-0.93606,
4.55115,-128.055,-2.82025,3.07567,-0.0103661,-0.0348926,-0.89812,0.438241,-0.390595,-0.0207203,-0.248791,-0.856788,-1.08821,-10.3305,-0.465602,0.133024,0.274398,39.165,99.438,0.024999,-0.442949,0.0418377,-0.319523,-0.0157061,-0.0293942,-0.261302,0.388188,0.304266,0.257891,-0.206326,0.600069,-10.4036,-0.374909,-0.563364,-0.562718,-0.206326,0.600069,-0.609864,
4.57635,-128.409,-2.80524,2.58867,-0.0122063,-0.0309806,-0.899612,0.435419,-0.426632,-0.0141076,-0.250037,-0.710971,-2.23681,-10.1762,-0.468082,0.131686,0.27017,39.16,99.408,0.025001,-0.502998,0.000598583,-0.347906,-0.0164277,-0.0297983,-0.267406,0.392364,0.30278,0.252603,-1.26182,1.26541,-10.2894,-0.231655,-1.795,-0.404208,-1.26182,1.26541,-0.495624,
4.60157,-128.785,-2.81338,2.10781,-0.0141868,-0.0271897,-0.901157,0.432406,-0.261766,-0.0178564,-0.259138,-0.10534,-1.44219,-10.3445,-0.470542,0.126396,0.259077,39.165,99.433,0.025,-0.498148,-0.0206816,-0.369946,-0.00941263,-0.0297859,-0.268708,0.393527,0.303277,0.240137,-1.08041,0.348922,-10.3832,0.375366,-1.08241,-0.569156,-1.08041,0.348922,-0.589424,
4.62681,-129.215,-2.84267,1.82242,-0.015588,-0.0249973,-0.902831,0.428985,-0.0670566,-0.0544321,-0.302587,-0.361404,-0.619588,-11.1319,-0.46302,0.120014,0.283093,39.18,99.425,0.025,-0.305438,-0.0411128,-0.422989,-0.011719,-0.0473511,-0.279859,0.387331,0.299167,0.263451,-0.326786,0.0190975,-11.1502,0.124304,-0.308512,-1.35514,-0.326786,0.0190975,-1.35643,
4.65204,-129.771,-2.85151,1.74189,-0.0160772,-0.0243183,-0.904914,0.424594,-0.00992788,-0.0105852,-0.40267,-0.154223,-0.198234,-11.2846,-0.469502,0.157848,0.277922,39.165,99.438,0.024999,-0.106784,-0.023206,-0.548584,-0.00986827,-0.030016,-0.280368,0.423743,0.275697,0.258885,-0.149261,-0.405807,-11.2791,0.332993,0.0990987,-1.50753,-0.149261,-0.405807,-1.48539,
4.67724,-130.382,-2.8323,1.79094,-0.0158748,-0.0245502,-0.90716,0.419769,0.00627477,0.00876264,-0.409553,-0.622673,-1.10338,-11.0561,-0.463344,0.16439,0.273839,39.18,99.438,0.025,0.0200369,0.00325001,-0.605258,-0.0115717,-0.032738,-0.273834,0.427392,0.262107,0.255607,-0.528829,0.547138,-11.1024,-0.138737,-0.797675,-1.27907,-0.528829,0.547138,-1.30863,
4.70244,-130.886,-2.79958,2.00389,-0.0149503,-0.0260509,-0.908959,0.415802,0.142578,0.0207254,-0.321368,-0.607202,-1.53768,-10.877,-0.467162,0.177436,0.273437,39.16,99.421,0.025001,0.189523,0.0189952,-0.498774,-0.022639,-0.0299587,-0.270972,0.441185,0.25327,0.256323,-0.826531,0.812048,-10.9408,-0.128851,-1.19563,-1.10094,-0.826531,0.812048,-1.14701,
4.72766,-131.238,-2.71348,2.19264,-0.0136659,-0.0271943,-0.910213,0.413021,0.0906319,0.090289,-0.226056,-0.137443,0.421597,-10.9912,-0.467069,0.164386,0.276486,39.16,99.421,0.025,0.173327,0.0760317,-0.349777,-0.0121422,-0.00432843,-0.267486,0.43193,0.25958,0.260144,0.381267,-0.842094,-10.9612,0.326206,0.79588,-1.2156,0.381267,-0.842094,-1.16749,
4.75288,-131.528,-2.42971,2.20269,-0.0114412,-0.0262244,-0.911323,0.410697,-0.138644,0.233845,-0.226131,-0.19643,-0.653426,-11.0222,-0.472022,0.163083,0.281894,39.18,99.438,0.024999,-0.00142295,0.275143,-0.295006,0.00372351,-0.0133306,-0.267959,0.434645,0.261331,0.267685,-0.351827,-0.0514005,-11.0375,0.218764,-0.277345,-1.24446,-0.351827,-0.0514005,-1.2438,
4.77808,-131.844,-2.13565,2.07466,-0.00962699,-0.0241277,-0.912545,0.40815,-0.190094,0.116578,-0.19718,-0.976783,-2.40483,-10.3749,-0.464568,0.165824,0.301553,39.17,99.433,0.025001,-0.139056,0.284928,-0.320681,-0.0108212,-0.0212477,-0.266179,0.432661,0.251112,0.289833,-1.11929,1.78958,-10.4843,-0.611813,-2.05053,-0.594339,-1.11929,1.78958,-0.690517,
4.80326,-132.136,-2.00687,1.96412,-0.00905296,-0.0227663,-0.913633,0.405801,-0.0401511,0.0492395,-0.145946,-0.275278,-1.66148,-10.4734,-0.464515,0.159326,0.308634,39.16,99.421,0.024999,-0.119796,0.121416,-0.291283,-0.0245709,-0.0308897,-0.279591,0.429061,0.252669,0.297454,-1.02784,0.803909,-10.5274,0.0676918,-1.32602,-0.691458,-1.02784,0.803909,-0.733677,
4.82846,-132.357,-2.09151,1.93594,-0.00987182,-0.0228219,-0.914402,0.404043,0.0543428,-0.115479,-0.11355,-0.319823,-1.14617,-10.7835,-0.469511,0.163221,0.308377,39.16,99.433,0.025001,-0.0347098,-0.0890831,-0.212375,-0.019336,-0.0329291,-0.270712,0.436684,0.252288,0.296371,-0.627909,0.470831,-10.8206,0.0376068,-0.815534,-1.00191,-0.627909,0.470831,-1.02684,
4.85374,-132.526,-2.29966,1.98779,-0.0113856,-0.0239518,-0.91494,0.402718,0.109179,-0.184809,-0.0889106,-0.852324,-0.802785,-11.2323,-0.464544,0.163238,0.307164,39.165,99.438,0.025,0.0467544,-0.210795,-0.155638,-0.0185883,-0.0258574,-0.275435,0.4346,0.248258,0.293749,-0.033717,0.573803,-11.2785,-0.459341,-0.463348,-1.45228,-0.033717,0.573803,-1.48473,
4.87892,-132.652,-2.58824,2.14242,-0.0131758,-0.0261843,-0.915283,0.401745,0.13374,-0.20723,-0.095687,-0.817478,-1.20326,-10.8655,-0.463335,0.167143,0.302959,39.18,99.438,0.024999,0.15044,-0.290001,-0.110463,-0.012376,-0.0398301,-0.269317,0.43758,0.245194,0.287758,-0.365884,0.777991,-10.9286,-0.375212,-0.837505,-1.08854,-0.365884,0.777991,-1.13489,
4.90411,-132.731,-2.89458,2.41633,-0.0146834,-0.0294335,-0.915413,0.401169,0.251828,-0.21947,-0.0701174,-0.237654,-1.20363,-10.7438,-0.467143,0.174844,0.27766,39.18,99.425,0.025,0.271401,-0.306347,-0.0614073,-0.00830008,-0.0297867,-0.270329,0.446057,0.242669,0.260831,-0.759112,0.282939,-10.7832,0.256914,-0.791245,-0.971257,-0.759112,0.282939,-0.989498,
4.92934,-132.791,-3.19189,2.69045,-0.0161167,-0.0326529,-0.915461,0.400757,0.197674,-0.203612,-0.0518784,-0.564952,-0.551384,-11.2847,-0.465909,0.177509,0.287374,39.16,99.433,0.025001,0.272176,-0.296855,-0.0405476,-0.00938284,-0.0251109,-0.271054,0.447405,0.242152,0.26899,-0.0596258,-0.03339,-11.3121,-0.0196344,-0.0923802,-1.51694,-0.0596258,-0.03339,-1.51834,
4.95453,-132.823,-3.45795,3.00364,-0.017158,-0.0360774,-0.915393,0.400574,0.151046,-0.184247,-0.0594291,-0.431878,-2.06363,-10.7416,-0.464666,0.178868,0.297116,39.175,99.421,0.024999,0.312634,-0.264529,-0.013107,-0.00655092,-0.0345398,-0.266468,0.447415,0.242903,0.277496,-1.24988,0.855051,-10.8413,0.158841,-1.55138,-0.979151,-1.24988,0.855051,-1.04759,
4.97975,-132.832,-3.68538,3.29503,-0.0179606,-0.0391954,-0.915253,0.400566,0.180868,-0.133291,-0.0207935,-0.760981,-1.70366,-10.794,-0.458482,0.182831,0.300034,39.17,99.421,0.025001,0.292319,-0.224913,0.0082079,-0.00765454,-0.0184484,-0.268246,0.445816,0.237778,0.279935,-0.751239,0.778869,-10.9005,-0.131461,-1.14191,-1.03664,-0.751239,0.778869,-1.10673,
5.00494,-132.82,-3.85927,3.51711,-0.0185698,-0.0415762,-0.915069,0.40072,0.0613342,-0.104246,-0.00745924,-0.444706,-1.6425,-10.4355,-0.454767,0.184148,0.29875,39.165,99.433,0.024999,0.224193,-0.170162,0.0278453,-0.005218,-0.0259702,-0.264369,0.443936,0.235617,0.278174,-0.91245,0.485428,-10.5227,0.214473,-1.04304,-0.682375,-0.91245,0.485428,-0.728952,
5.03017,-132.803,-3.97963,3.72782,-0.0187882,-0.0436804,-0.914883,0.40091,0.110142,-0.0661102,-0.0253381,-0.0722345,-2.26699,-9.75636,-0.451124,0.195923,0.298638,39.16,99.421,0.025001,0.213477,-0.116319,0.030454,-0.00664368,-0.0252571,-0.261205,0.449641,0.226364,0.278686,-1.61146,0.655719,-9.86429,0.60747,-1.63177,-0.00689726,-1.61146,0.655719,-0.0705433,
5.05543,-132.775,-4.10516,3.89436,-0.0191976,-0.0454514,-0.91467,0.401179,0.194606,-0.0984485,0.0119352,-0.500053,-0.0300605,-10.6229,-0.462412,0.206147,0.261906,39.165,99.438,0.024999,0.169881,-0.120752,0.0417273,-0.0102422,-0.0158253,-0.260511,0.464522,0.225427,0.241493,0.330944,-0.660509,-10.609,0.201054,0.633395,-0.876854,0.330944,-0.660509,-0.815284,
5.08064,-132.736,-4.18783,4.00896,-0.0194411,-0.0466606,-0.914454,0.401522,0.0506084,-0.0647601,0.00634173,-0.571451,-0.575735,-10.186,-0.462418,0.207466,0.264657,39.18,99.45,0.025001,0.118683,-0.0771827,0.0498478,-0.00658527,-0.0276973,-0.257767,0.465188,0.225785,0.244002,-0.0175708,-0.222076,-10.2158,0.14375,0.107142,-0.442257,-0.0175708,-0.222076,-0.422029,
5.10585,-132.7,-4.26794,4.1235,-0.0196647,-0.0478597,-0.914247,0.401841,0.137822,-0.0648157,0.0244741,-0.349116,-0.971257,-10.1106,-0.45743,0.204884,0.266276,39.18,99.438,0.024999,0.118704,-0.0747685,0.0468983,-0.0100205,-0.0202079,-0.259158,0.459607,0.224974,0.2455,-0.454024,-0.135584,-10.1521,0.379741,-0.268976,-0.369321,-0.454024,-0.135584,-0.358371,
5.1311,-132.661,-4.34507,4.18101,-0.0200626,-0.0485942,-0.914053,0.402173,0.0478164,-0.0509568,0.0209625,-0.500447,-0.0120019,-11.0065,-0.458696,0.210156,0.277237,39.18,99.438,0.025001,0.0616749,-0.0715427,0.0497364,-0.0102119,-0.0244328,-0.257681,0.464196,0.224267,0.25623,0.355835,-0.780362,-10.9845,0.241558,0.699985,-1.26692,0.355835,-0.780362,-1.19073,
5.15633,-132.621,-4.37857,4.23103,-0.0201375,-0.049117,-0.913878,0.402504,-0.0316151,-0.0177907,0.0277378,-0.718909,-2.12692,-9.94614,-0.456177,0.20359,0.267736,39.18,99.413,0.024999,0.0545245,-0.0280606,0.0474072,-0.00815272,-0.0289105,-0.252204,0.457444,0.226433,0.246377,-1.05637,0.900819,-10.1014,0.0288047,-1.40646,-0.207595,-1.05637,0.900819,-0.307689,
5.18158,-132.56,-4.39223,4.27898,-0.020052,-0.0495577,-0.913638,0.402998,0.0604767,-0.0144114,0.070764,-0.397865,-1.34758,-9.77254,-0.463609,0.202294,0.277224,39.17,99.413,0.025001,0.0543922,-0.00670048,0.0666809,-0.00929361,-0.0218206,-0.256438,0.461103,0.234467,0.255184,-0.694433,0.152541,-9.8474,0.352178,-0.618988,-0.0347757,-0.694433,0.152541,-0.0536547,
5.20686,-132.509,-4.40038,4.32074,-0.0199479,-0.049928,-0.913437,0.403413,0.0476762,0.00570416,0.058891,-0.0123349,-0.325646,-10.2783,-0.446267,0.210262,0.287402,39.165,99.421,0.024999,0.0468762,-0.00188922,0.0568468,-0.00733997,-0.0234244,-0.256892,0.454933,0.218067,0.267294,-0.192856,-0.875832,-10.2443,0.739096,0.410038,-0.54115,-0.192856,-0.875832,-0.450513,
5.23219,-132.451,-4.39171,4.38221,-0.0196367,-0.0503976,-0.913209,0.403886,0.102556,0.0155618,0.0326378,-0.283989,-0.793256,-10.155,-0.454822,0.190625,0.287499,39.18,99.425,0.025,0.0672733,0.0155062,0.0626041,-0.00968605,-0.0255495,-0.255519,0.445688,0.238164,0.265512,-0.346408,-0.356466,-10.1778,0.465964,-0.0471184,-0.418584,-0.346408,-0.356466,-0.384044,
5.25745,-132.386,-4.38127,4.41633,-0.0194043,-0.0506441,-0.912968,0.404412,0.0549714,0.0144366,0.0248784,-0.560873,-0.278132,-10.7652,-0.449864,0.191948,0.286259,39.18,99.425,0.025,0.0404292,0.017764,0.0697595,-0.0114239,-0.0237257,-0.257179,0.44291,0.234095,0.264945,0.230607,-0.565658,-10.7661,0.187302,0.473814,-1.02911,0.230607,-0.565658,-0.972367,
5.28267,-132.329,-4.37897,4.43362,-0.0192997,-0.0507834,-0.91276,0.404868,-0.06259,0.00146059,0.0371825,-0.596716,-1.34513,-9.83779,-0.453517,0.184173,0.302959,39.17,99.438,0.025001,0.0227692,0.00898163,0.061894,-0.00935298,-0.0262405,-0.251673,0.439198,0.24428,0.280739,-0.538231,0.271304,-9.92896,0.151067,-0.590242,-0.101856,-0.538231,0.271304,-0.135215,
5.3079,-132.267,-4.40024,4.46778,-0.0193212,-0.0511405,-0.912518,0.405368,0.0326056,-0.0405163,0.0570836,-0.504282,-1.25557,-9.60712,-0.458689,0.20749,0.266178,39.165,99.433,0.024999,0.0400872,-0.0142788,0.068344,-0.0101725,-0.0248154,-0.253357,0.459863,0.229235,0.24551,-0.533628,0.161287,-9.68591,0.247126,-0.4949,0.128081,-0.533628,0.161287,0.107838,
5.33313,-132.21,-4.4213,4.47476,-0.0194387,-0.0512798,-0.912302,0.405829,0.0121269,-0.0244488,0.082216,-0.540588,-0.311693,-10.1087,-0.452414,0.201067,0.283203,39.16,99.421,0.025001,0.0127616,-0.014302,0.0641448,-0.0107869,-0.018228,-0.256047,0.450593,0.231287,0.262263,0.192895,-0.498718,-10.1138,0.214409,0.45014,-0.373885,0.192895,-0.498718,-0.320092,
5.35834,-132.062,-4.4259,4.50082,-0.0193166,-0.0515284,-0.911763,0.407012,0.0996928,-0.00181384,0.0457753,-0.335898,-0.773361,-10.5499,-0.453669,0.20234,0.277574,39.17,99.425,0.025001,0.0323229,0.00610723,0.0831098,-0.0114905,-0.0210536,-0.257118,0.451735,0.232029,0.256714,-0.280261,-0.395538,-10.5725,0.419883,-0.00710455,-0.815505,-0.280261,-0.395538,-0.77872,
5.38356,-131.984,-4.41615,4.48747,-0.0192513,-0.051401,-0.911496,0.40763,-0.0451071,0.00406157,0.0421264,-0.584925,-0.675664,-10.558,-0.459906,0.204883,0.268965,39.18,99.425,0.024999,-0.00618226,0.0177951,0.0823948,-0.00903172,-0.0266904,-0.253902,0.457551,0.23456,0.247914,-0.0414176,-0.273967,-10.5921,0.169194,0.0883355,-0.823228,-0.0414176,-0.273967,-0.798348,
5.40878,-131.901,-4.39965,4.49183,-0.0190673,-0.0513911,-0.911207,0.408285,-0.0470615,0.0172099,0.0541928,-0.869253,-2.46361,-9.74003,-0.462459,0.213988,0.26313,39.18,99.425,0.025001,0.0123218,0.0249436,0.0863922,-0.0106628,-0.0287949,-0.251095,0.465684,0.230418,0.242782,-1.18881,1.21046,-9.94056,-0.117945,-1.69886,-0.00514117,-1.18881,1.21046,-0.146815,
5.434,-131.816,-4.36408,4.49192,-0.0187455,-0.05128,-0.910918,0.408959,0.0530988,0.0342168,0.109873,-0.600805,-0.537161,-10.4607,-0.455004,0.214044,0.267562,39.165,99.425,0.024999,0.00742145,0.0441349,0.0876801,-0.00977612,-0.0178583,-0.255458,0.460289,0.225906,0.248059,0.0796741,-0.336529,-10.486,0.144441,0.227646,-0.725361,0.0796741,-0.336529,-0.692268,
5.45922,-131.749,-4.32932,4.47971,-0.0184825,-0.0510705,-0.9107,0.409483,0.00649892,0.0109292,0.059059,-0.431834,-0.493675,-10.3408,-0.463677,0.210058,0.261779,39.17,99.396,0.025001,-0.00605006,0.042198,0.0693866,-0.00775429,-0.0280762,-0.251801,0.462793,0.234744,0.241592,0.00198261,-0.471621,-10.3509,0.307486,0.269092,-0.60487,0.00198261,-0.471621,-0.557132,
5.48443,-131.688,-4.28152,4.48687,-0.0180494,-0.0509673,-0.910499,0.40996,0.0333065,0.0202999,0.0199447,-0.755044,-1.34081,-10.4164,-0.453674,0.203659,0.280325,39.175,99.438,0.024999,0.0131323,0.0546537,0.0623176,-0.0134645,-0.0242871,-0.254815,0.450796,0.233872,0.260704,-0.409753,0.324523,-10.5164,-0.023872,-0.576782,-0.679888,-0.409753,0.324523,-0.722691,
5.50968,-131.63,-4.2481,4.482,-0.0177753,-0.0508189,-0.910309,0.410413,-0.0166915,0.0119977,0.0662676,-0.670404,-1.06759,-10.3144,-0.456256,0.215345,0.267492,39.16,99.408,0.025001,0.0006814,0.040065,0.0603991,-0.00975788,-0.0275944,-0.252584,0.46106,0.227056,0.248926,-0.259045,0.097342,-10.3875,0.0550727,-0.304348,-0.577473,-0.259045,0.097342,-0.593764,
5.5349,-131.572,-4.21653,4.50392,-0.0174201,-0.0508893,-0.910106,0.410869,-0.0175336,0.00699397,0.0806095,-0.17783,-1.96541,-9.48342,-0.461196,0.210056,0.259089,39.165,99.425,0.024999,0.02744,0.0381322,0.0603131,-0.0102,-0.0269409,-0.252588,0.460051,0.233756,0.24013,-1.2598,0.410138,-9.59554,0.542264,-1.19841,0.253654,-1.2598,0.410138,0.198203,
5.56013,-131.532,-4.19071,4.56091,-0.0169924,-0.051256,-0.909948,0.411191,0.122508,0.00977241,0.0393,-0.283277,-0.572011,-9.90074,-0.451148,0.19848,0.287467,39.18,99.425,0.025001,0.0613243,0.0312066,0.0433411,-0.0102755,-0.0251537,-0.255353,0.443974,0.237332,0.268563,-0.130563,-0.474836,-9.90906,0.432415,0.204695,-0.164108,-0.130563,-0.474836,-0.115318,
5.58537,-131.514,-4.18541,4.6125,-0.016757,-0.0516494,-0.909862,0.411342,0.0662786,-0.00124738,-0.00486832,-0.623407,0.0342759,-10.7674,-0.461133,0.202252,0.266197,39.165,99.408,0.024999,0.0539602,0.00906573,0.0230527,-0.0135542,-0.0243168,-0.255177,0.453372,0.240332,0.247193,0.566995,-0.717371,-10.7466,0.0913827,0.819753,-1.03138,0.566995,-0.717371,-0.952878,
5.61059,-131.485,-4.18734,4.63747,-0.0166697,-0.0518588,-0.909746,0.411575,-0.0487511,0.0107435,0.00303441,-0.71628,-1.53853,-10.1142,-0.461353,0.232264,0.25863,39.18,99.425,0.025001,0.0279644,0.00258791,0.0343633,-0.0105789,-0.0280701,-0.253896,0.475934,0.220316,0.242137,-0.556602,0.45105,-10.2305,-0.00116097,-0.748809,-0.378536,-0.556602,0.45105,-0.436755,
5.63582,-131.469,-4.17534,4.69865,-0.0163473,-0.0523039,-0.909667,0.411707,0.0280507,0.00857299,0.0167849,-0.287685,-1.69054,-9.65852,-0.456198,0.208874,0.28013,39.18,99.425,0.024999,0.0631587,0.015172,0.0201948,-0.00856716,-0.0294749,-0.256638,0.454379,0.234432,0.262297,-0.950444,0.274087,-9.75958,0.425387,-0.890418,0.076402,-0.950444,0.274087,0.0341702,
5.66104,-131.467,-4.13935,4.7344,-0.0159316,-0.0524596,-0.909657,0.411726,0.0252308,0.0305084,0.0146699,-0.415742,-0.487733,-10.4882,-0.456138,0.201056,0.28446,39.18,99.413,0.025,0.0373875,0.0382872,0.00522795,-0.0127953,-0.0199022,-0.259394,0.448155,0.240009,0.266376,0.057496,-0.508183,-10.4953,0.291196,0.318503,-0.753332,0.057496,-0.508183,-0.701564,
5.68632,-131.488,-4.05766,4.74059,-0.0152698,-0.0522143,-0.909767,0.41154,-0.0312151,0.0791561,-0.021847,-0.214166,-1.02251,-10.0975,-0.454947,0.206228,0.271893,39.18,99.413,0.025,0.00583416,0.0815407,-0.0226494,-0.00950156,-0.0276254,-0.25412,0.451254,0.233944,0.255092,-0.472364,-0.255624,-10.1372,0.478844,-0.215134,-0.361733,-0.472364,-0.255624,-0.343444,
5.71168,-131.502,-3.9755,4.77617,-0.0144953,-0.0522018,-0.909837,0.411415,0.0780967,0.0808242,-0.0472608,-0.450638,-1.11362,-10.3521,-0.45736,0.198451,0.287248,39.18,99.438,0.025001,0.0359716,0.08292,-0.0154966,-0.0140726,-0.0255218,-0.252826,0.446448,0.242228,0.270337,-0.365886,-0.0395744,-10.4151,0.228361,-0.300119,-0.615858,-0.365886,-0.0395744,-0.62134,
5.73691,-131.525,-3.90245,4.79758,-0.0138479,-0.0521085,-0.909938,0.411224,0.0142272,0.060423,-0.0558735,-0.484691,-0.638668,-10.9883,-0.459975,0.215369,0.275695,39.18,99.425,0.024999,0.0207913,0.0731105,-0.022842,-0.0126349,-0.0254205,-0.250994,0.46085,0.231496,0.260758,0.0356904,-0.385949,-11.0107,0.181851,0.178539,-1.25149,0.0356904,-0.385949,-1.21694,
5.76219,-131.54,-3.8099,4.82522,-0.0130198,-0.0519962,-0.910019,0.411086,-0.0374418,0.0827512,-0.0585727,-0.914789,-2.43615,-10.1972,-0.452398,0.202494,0.308182,39.19,99.413,0.025,0.027673,0.0933148,-0.0175585,-0.0128575,-0.02948,-0.247817,0.445248,0.237372,0.293346,-1.02642,1.20864,-10.4038,-0.264031,-1.61416,-0.459692,-1.02642,1.20864,-0.610071,
5.78742,-131.536,-3.72065,4.86745,-0.0121568,-0.0520138,-0.910022,0.411103,0.0711006,0.06957,-0.0133147,-0.579615,-0.830892,-10.2145,-0.463657,0.210159,0.282618,39.175,99.425,0.025,0.0434013,0.091286,0.00201324,-0.00927616,-0.0201925,-0.246654,0.458477,0.237928,0.268712,-0.0283906,-0.0905827,-10.2642,0.055921,-0.00163551,-0.476632,-0.0283906,-0.0905827,-0.470422,
5.81271,-131.543,-3.64193,4.8899,-0.0114532,-0.0519107,-0.910068,0.411036,0.0275937,0.0479709,-0.0331075,-0.0197119,-0.47756,-10.4388,-0.459932,0.208831,0.274442,39.18,99.413,0.025,0.0230878,0.0802586,-0.00779493,-0.0123218,-0.0256396,-0.246809,0.454892,0.23492,0.261441,-0.116948,-0.756245,-10.4216,0.602395,0.355586,-0.700363,-0.116948,-0.756245,-0.627891,
5.83796,-131.546,-3.58619,4.92561,-0.0108837,-0.0519953,-0.910087,0.410998,0.0277813,0.0579057,-0.0577192,-0.468402,-1.74438,-9.96844,-0.457436,0.208889,0.284254,39.175,99.421,0.025,0.0370712,0.0575705,-0.00288823,-0.014906,-0.0255753,-0.243833,0.452774,0.233941,0.271937,-0.768301,0.462905,-10.091,0.144197,-0.905111,-0.229967,-0.768301,0.462905,-0.297213,
5.86319,-131.521,-3.54707,4.94429,-0.0104943,-0.0520064,-0.910005,0.411188,0.00778625,0.0196079,0.0200061,-0.516604,-0.596913,-9.83397,-0.463705,0.216677,0.279704,39.18,99.425,0.025001,0.021795,0.0437913,0.0268497,-0.0143275,-0.0235188,-0.241446,0.462571,0.233169,0.26808,0.1272,-0.237794,-9.86192,0.0893213,0.245565,-0.0953566,0.1272,-0.237794,-0.0681696,
5.88849,-131.498,-3.54417,4.9759,-0.0103472,-0.0522492,-0.909909,0.411375,0.0119851,0.0072575,-0.00381139,-0.583589,-1.26112,-9.6726,-0.461291,0.225806,0.274046,39.18,99.425,0.024999,0.0344436,0.0077607,0.0282249,-0.0154965,-0.027154,-0.239846,0.467733,0.225079,0.263523,-0.325856,0.261601,-9.76297,0.0218412,-0.413264,0.0655783,-0.325856,0.261601,0.0307798,
5.91387,-131.471,-3.58411,5.00738,-0.0105394,-0.0526442,-0.909782,0.411599,0.0674017,-0.0257725,-0.0264434,-0.805548,-0.196081,-10.2543,-0.459881,0.20635,0.302279,39.16,99.421,0.025001,0.0345197,-0.0345468,0.0353728,-0.016951,-0.0210229,-0.244642,0.451427,0.240197,0.289763,0.633095,-0.340253,-10.2626,-0.193305,0.657086,-0.51697,0.633095,-0.340253,-0.468833,
5.93909,-131.434,-3.62954,5.02385,-0.0108243,-0.0529406,-0.909623,0.411905,-0.0628787,-0.0162354,0.0239093,-0.596945,-1.7363,-10.0036,-0.458664,0.208935,0.295323,39.18,99.425,0.025,0.0201733,-0.0391864,0.0462009,-0.0129853,-0.0312244,-0.24138,0.452659,0.237388,0.282822,-0.66956,0.531357,-10.1347,0.0230489,-0.880377,-0.267032,-0.66956,0.531357,-0.340954,
5.9643,-131.414,-3.70063,5.08548,-0.0111584,-0.0536857,-0.909493,0.412087,0.0866085,-0.0692288,0.0420787,-0.417678,-1.3769,-9.14974,-0.458551,0.189226,0.272112,39.17,99.408,0.024999,0.0646545,-0.0661622,0.0316382,-0.0161524,-0.0223942,-0.241199,0.438248,0.248378,0.257617,-0.538896,0.236256,-9.24347,0.214443,-0.51057,0.585112,-0.538896,0.236256,0.550271,
5.98953,-131.391,-3.78166,5.13116,-0.0116269,-0.0543402,-0.909353,0.412298,0.041644,-0.057133,0.0395255,-0.681481,-0.0358899,-9.51713,-0.454787,0.184018,0.272351,39.18,99.413,0.025,0.0482531,-0.0757012,0.0360393,-0.0153942,-0.020778,-0.238509,0.431819,0.249605,0.257096,0.647852,-0.498188,-9.5065,-0.0355393,0.838116,0.216132,0.647852,-0.498188,0.287248,
6.01476,-131.341,-3.83703,5.19556,-0.0118111,-0.0550542,-0.909118,0.412715,0.0512314,-0.0371676,0.0260112,-0.510956,-1.47043,-9.50663,-0.458376,0.167091,0.287852,39.18,99.425,0.025001,0.0689535,-0.0478423,0.0601719,-0.0138854,-0.0269499,-0.239223,0.4208,0.265841,0.27045,-0.540737,0.299039,-9.6134,0.14443,-0.585538,0.225015,-0.540737,0.299039,0.180348,
6.03997,-131.288,-3.91507,5.25008,-0.0122089,-0.0557716,-0.908867,0.413161,0.0547332,-0.089963,0.063879,-0.503871,-0.210247,-9.4872,-0.455953,0.174914,0.282221,39.18,99.425,0.024999,0.0593026,-0.0701021,0.0652872,-0.0147583,-0.0188594,-0.237054,0.425012,0.259156,0.265217,0.400188,-0.542614,-9.47895,0.164823,0.683819,0.242701,0.400188,-0.542614,0.314798,
6.06523,-131.241,-3.9904,5.2907,-0.0126375,-0.0563687,-0.908644,0.413556,-0.00483454,-0.0171459,0.0636197,-0.678577,-1.40638,-9.59481,-0.453539,0.184058,0.279342,39.18,99.4,0.025,0.045259,-0.0678667,0.059035,-0.0167701,-0.0261346,-0.240031,0.43024,0.251816,0.262847,-0.385735,0.342232,-9.70736,0.00296248,-0.505497,0.133566,-0.385735,0.342232,0.0863819,
6.09047,-131.196,-4.05962,5.36823,-0.0128854,-0.0572364,-0.908416,0.413931,0.11373,-0.0439532,0.045757,-0.36027,-0.0391231,-10.0867,-0.451101,0.191948,0.287603,39.18,99.413,0.025,0.0819169,-0.0620463,0.055633,-0.0119268,-0.01968,-0.240955,0.434111,0.246644,0.2716,0.449026,-0.860642,-10.0465,0.333073,0.874845,-0.360419,0.449026,-0.860642,-0.252716,
6.11569,-131.157,-4.09017,5.41205,-0.01295,-0.0576977,-0.908239,0.414252,-0.0227169,0.0158294,0.00898537,-0.51891,-1.15903,-9.95386,-0.451083,0.186643,0.271041,39.18,99.425,0.025001,0.0477405,-0.0239472,0.0469783,-0.0139467,-0.0254762,-0.240721,0.430259,0.248729,0.254531,-0.291565,-0.00680983,-10.0303,0.179641,-0.237659,-0.228604,-0.291565,-0.00680983,-0.23655,
6.141,-131.105,-4.10613,5.47303,-0.0128297,-0.0582442,-0.908012,0.414677,0.0595314,-0.00642149,0.0364738,-0.585805,-1.49117,-9.17068,-0.456012,0.180054,0.264054,39.18,99.4,0.025,0.0664634,-0.00848492,0.0588898,-0.0125923,-0.0232462,-0.236203,0.428291,0.256555,0.246653,-0.511709,0.340903,-9.28924,0.115468,-0.559469,0.553394,-0.511709,0.340903,0.504501,
6.16663,-131.064,-4.09559,5.52519,-0.0125361,-0.0586241,-0.90784,0.415008,0.028243,0.000570411,0.0419868,-0.126092,-0.162092,-9.33773,-0.448422,0.165887,0.299345,39.18,99.413,0.024999,0.0568798,0.0170204,0.0455222,-0.0115008,-0.0187244,-0.236204,0.411307,0.26461,0.281098,0.202063,-0.891123,-9.29519,0.573384,0.778474,0.385619,0.202063,-0.891123,0.498561,
6.19184,-131.04,-4.068,5.57289,-0.0121323,-0.0589054,-0.907742,0.415195,0.0770224,0.0175197,-0.0162282,-0.427654,-0.792814,-9.6051,-0.450002,0.211536,0.284463,39.18,99.413,0.025,0.0514719,0.0323054,0.0263778,-0.0143924,-0.0211458,-0.237855,0.446826,0.23471,0.270973,-0.0603898,-0.288237,-9.64275,0.267118,0.155879,0.117795,-0.0603898,-0.288237,0.150991,
6.21707,-131.004,-4.04155,5.59943,-0.0118079,-0.0590242,-0.907612,0.415473,0.0043081,-0.00466479,0.0273409,-0.596087,-0.64321,-9.36666,-0.452492,0.212844,0.287127,39.18,99.425,0.025001,0.0308263,0.0323061,0.0382759,-0.0131763,-0.0228782,-0.234806,0.44904,0.236329,0.273871,0.162772,-0.230074,-9.40341,0.0941752,0.310019,0.35611,0.162772,-0.230074,0.390341,
6.24235,-130.957,-4.00612,5.63079,-0.0113888,-0.0591497,-0.907441,0.41584,0.0129051,0.0253364,0.0617874,-0.429473,-1.6539,-9.04306,-0.461189,0.214136,0.292349,39.18,99.413,0.024999,0.0366925,0.0425214,0.0487587,-0.013747,-0.0202381,-0.236168,0.455127,0.243012,0.278966,-0.71165,0.337453,-9.16932,0.254747,-0.695309,0.679615,-0.71165,0.337453,0.624425,
6.26757,-130.932,-3.9888,5.66206,-0.0111248,-0.0593375,-0.90734,0.41604,0.0699101,-0.00417473,0.00345316,-0.586473,0.277206,-9.4778,-0.456162,0.207688,0.305162,39.18,99.4,0.025,0.0348787,0.0225334,0.0289477,-0.0146655,-0.0190166,-0.237178,0.446303,0.245147,0.291648,0.86957,-0.845579,-9.42222,0.0947945,1.24112,0.244557,0.86957,-0.845579,0.371522,
6.2928,-130.926,-3.99824,5.67369,-0.0111546,-0.0594642,-0.90731,0.416087,-0.0475998,0.00093777,-0.0150364,-0.682514,-1.23016,-9.62928,-0.451248,0.212857,0.28856,39.195,99.404,0.025,0.0143145,-0.00612227,0.0117881,-0.0172829,-0.0247036,-0.238898,0.447448,0.236279,0.275976,-0.202843,0.181501,-9.7277,0.000362695,-0.264281,0.0927684,-0.202843,0.181501,0.0660505,
6.31802,-130.92,-4.01836,5.70267,-0.0112056,-0.0597667,-0.907263,0.416146,0.0228466,-0.0193915,-0.000363128,-0.526037,-1.43385,-9.10643,-0.462457,0.215363,0.276996,39.18,99.413,0.025,0.0317829,-0.0167485,0.0137314,-0.0116922,-0.0223153,-0.236762,0.456931,0.241975,0.263888,-0.473098,0.25099,-9.21808,0.160272,-0.463077,0.614886,-0.473098,0.25099,0.575668,
6.34332,-130.92,-4.02724,5.72209,-0.0112054,-0.0599525,-0.907248,0.41615,0.0141057,-0.0113574,0.00972751,-0.425158,-0.208664,-9.22633,-0.454929,0.207654,0.296872,39.18,99.425,0.025001,0.0210569,-0.00620706,0.00635999,-0.0142484,-0.0156915,-0.23897,0.445547,0.243733,0.283366,0.392738,-0.634362,-9.2083,0.262663,0.765395,0.494552,0.392738,-0.634362,0.585443,
6.36883,-130.931,-4.04596,5.71584,-0.0113822,-0.0599693,-0.907282,0.416069,-0.0275648,0.00703092,-0.0274174,-0.365656,-1.03641,-9.44219,-0.45489,0.203795,0.309456,39.18,99.413,0.025,-0.00549123,-0.0171082,-0.00343969,-0.0150079,-0.0243124,-0.23897,0.442366,0.247649,0.295301,-0.268756,-0.171225,-9.5006,0.325358,-0.0634391,0.278573,-0.268756,-0.171225,0.293151,
6.39414,-130.938,-4.08783,5.71977,-0.0117039,-0.0601506,-0.907287,0.416023,0.0350414,-0.0369996,-0.0199784,-0.42667,-0.218333,-10.1851,-0.458648,0.206323,0.295377,39.195,99.417,0.024999,0.00516536,-0.0397234,0.00239503,-0.0142298,-0.0180499,-0.243381,0.447296,0.247294,0.280974,0.40717,-0.74819,-10.1607,0.271484,0.755259,-0.464878,0.40717,-0.74819,-0.366954,
6.41936,-130.942,-4.10349,5.67929,-0.0119769,-0.0598861,-0.907314,0.415994,-0.101985,0.00227235,-0.00548996,-0.576862,-1.22881,-9.6544,-0.458621,0.203744,0.302377,39.18,99.4,0.025,-0.0393105,-0.0133071,0.00338687,-0.013809,-0.024258,-0.246516,0.445359,0.24965,0.287414,-0.28112,0.083981,-9.74495,0.12396,-0.26211,0.0662889,-0.28112,0.083981,0.0487928,
6.44463,-130.958,-4.09892,5.66421,-0.0120041,-0.0597485,-0.907384,0.41586,-0.0229038,0.00469917,-0.0178415,-0.263407,-1.63303,-9.66385,-0.463594,0.202347,0.288336,39.18,99.413,0.025001,-0.0146032,0.00520917,-0.0114384,-0.01249,-0.0248474,-0.255622,0.448066,0.252433,0.272978,-0.792841,0.110622,-9.77166,0.436637,-0.668882,0.0571508,-0.792841,0.110622,0.0220881,
6.46991,-131.009,-4.08619,5.62178,-0.0120833,-0.0593613,-0.907596,0.415451,0.0485751,0.0175165,-0.0375851,-0.254969,0.236265,-10.8382,-0.456199,0.210221,0.288438,39.18,99.4,0.025,-0.0437689,0.0102663,-0.0461244,-0.0162411,-0.0171101,-0.26611,0.44952,0.24118,0.274355,0.642249,-1.23779,-10.7538,0.442904,1.19323,-1.11638,0.642249,-1.23779,-0.960036,
6.49518,-131.077,-4.0601,5.52665,-0.0122559,-0.0585068,-0.907903,0.414896,-0.0559244,0.0370213,-0.0752106,-0.174864,0.128037,-11.7789,-0.45862,0.202404,0.295459,39.18,99.413,0.024999,-0.0972532,0.02173,-0.0645014,-0.0147635,-0.0242374,-0.271685,0.445597,0.247911,0.28032,0.520968,-1.32274,-11.6948,0.518561,1.06889,-2.05517,0.520968,-1.32274,-1.90108,
6.5204,-131.165,-3.99785,5.40282,-0.0122546,-0.0572924,-0.908314,0.414165,-0.144201,0.0519539,-0.102875,-0.307895,-1.00127,-11.148,-0.462379,0.204933,0.28138,39.18,99.413,0.025001,-0.128339,0.0560841,-0.0883897,-0.0137145,-0.0250591,-0.273975,0.451,0.246098,0.266461,-0.271694,-0.391021,-11.187,0.374916,-0.0813592,-1.42153,-0.271694,-0.391021,-1.39327,
6.54561,-131.301,-3.87218,5.23233,-0.0119386,-0.0554759,-0.908942,0.413043,-0.181829,0.0968441,-0.128489,-0.23394,-1.09771,-11.1397,-0.454831,0.195963,0.311007,39.185,99.417,0.024999,-0.177785,0.115047,-0.140703,-0.0126045,-0.0229745,-0.282347,0.439408,0.247453,0.296119,-0.402894,-0.341529,-11.1836,0.42744,-0.206617,-1.40901,-0.402894,-0.341529,-1.38986,
6.57083,-131.49,-3.67218,4.99238,-0.0113019,-0.0528377,-0.909819,0.411472,-0.192763,0.15098,-0.149605,-0.384312,-0.758146,-11.3194,-0.461167,0.211536,0.29518,39.18,99.388,0.025001,-0.250521,0.185001,-0.200125,-0.013677,-0.0222053,-0.288115,0.456761,0.23714,0.282291,-0.0550675,-0.409106,-11.3437,0.242956,0.0923878,-1.5828,-0.0550675,-0.409106,-1.54997,
6.59605,-131.677,-3.3988,4.66213,-0.0103944,-0.0492224,-0.910744,0.409896,-0.245167,0.218406,-0.136673,-0.540472,-0.308338,-11.9103,-0.461061,0.198533,0.307953,39.18,99.413,0.025,-0.340025,0.259477,-0.203369,-0.0142548,-0.022524,-0.287645,0.447867,0.243142,0.295168,0.383319,-0.563138,-11.9071,0.0401537,0.486295,-2.16614,0.383319,-0.563138,-2.11334,
6.62128,-131.872,-3.07172,4.25833,-0.00931241,-0.0448328,-0.911725,0.408242,-0.338582,0.236764,-0.155012,-0.819465,-0.604283,-11.8552,-0.467399,0.212753,0.282431,39.18,99.4,0.024999,-0.413254,0.313685,-0.214076,-0.0140566,-0.0269353,-0.282635,0.464534,0.2318,0.271976,0.32849,-0.0495373,-11.8942,-0.294658,0.121892,-2.10248,0.32849,-0.0495373,-2.10042,
6.64651,-132.077,-2.6801,3.82896,-0.00779486,-0.0400127,-0.912741,0.406499,-0.392208,0.26954,-0.163109,-0.580227,-1.05098,-11.5229,-0.463587,0.20238,0.295282,39.175,99.384,0.025,-0.438024,0.378992,-0.226924,-0.0147574,-0.0283386,-0.282975,0.455223,0.232309,0.286124,-0.181263,0.215803,-11.5818,-0.122276,-0.397686,-1.76167,-0.181263,0.215803,-1.78806,
6.67177,-132.275,-2.26893,3.39303,-0.00612423,-0.0350754,-0.913703,0.40482,-0.385302,0.286089,-0.153805,-0.637014,-2.07265,-10.9532,-0.473491,0.197081,0.289481,39.18,99.4,0.025001,-0.442909,0.400731,-0.21823,-0.0171143,-0.0292935,-0.279429,0.459163,0.238061,0.281657,-0.917521,1.10281,-11.0732,-0.24928,-1.49346,-1.18427,-0.917521,1.10281,-1.27945,
6.69702,-132.491,-1.86322,2.99643,-0.0043458,-0.0304748,-0.914675,0.403016,-0.311155,0.256889,-0.166126,-0.509841,-2.13224,-10.5932,-0.473517,0.201006,0.290789,39.18,99.413,0.024999,-0.403046,0.395973,-0.232443,-0.0175797,-0.0323127,-0.273597,0.463095,0.230871,0.285344,-1.05238,1.18372,-10.7011,-0.191411,-1.62056,-0.818058,-1.05238,1.18372,-0.907399,
6.72232,-132.719,-1.48118,2.63584,-0.0026153,-0.0262498,-0.91564,0.401133,-0.215598,0.229173,-0.157555,-0.540055,-1.55167,-10.1688,-0.474717,0.19714,0.303329,39.18,99.4,0.025,-0.365671,0.373453,-0.240554,-0.0194513,-0.0253354,-0.273945,0.461848,0.230447,0.299699,-0.608349,0.936663,-10.24,-0.2869,-1.10142,-0.388709,-0.608349,0.936663,-0.446219,
6.74784,-132.937,-1.15618,2.31402,-0.00118716,-0.0225395,-0.916527,0.399336,-0.165897,0.201104,-0.133758,-0.803402,-0.661883,-11.0428,-0.480958,0.20101,0.29886,39.18,99.425,0.025,-0.325553,0.318334,-0.227111,-0.0215286,-0.0271793,-0.274402,0.469982,0.227973,0.296965,0.237386,0.571444,-11.0745,-0.605785,-0.266529,-1.25906,0.237386,0.571444,-1.28076,
6.77307,-133.143,-0.889187,2.03509,-5.80375e-05,-0.0193788,-0.91733,0.397655,-0.164583,0.164217,-0.132509,-1.07236,-0.619425,-10.9262,-0.482227,0.203584,0.291817,39.18,99.4,0.025001,-0.281471,0.262229,-0.210422,-0.0239223,-0.0297188,-0.269292,0.47378,0.223156,0.291343,0.448538,0.816443,-10.9566,-0.920374,-0.271675,-1.13978,0.448538,0.816443,-1.16285,
6.79828,-133.339,-0.709392,1.81405,0.000585412,-0.0169867,-0.918063,0.396069,-0.139843,0.110481,-0.146868,-0.759027,-1.12706,-10.8091,-0.487114,0.194475,0.304331,39.18,99.413,0.024999,-0.2225,0.176416,-0.196186,-0.0227333,-0.0303673,-0.26695,0.471288,0.230259,0.30428,-0.141663,0.99269,-10.8479,-0.637772,-0.817057,-1.02102,-0.141663,0.99269,-1.05419,
6.8237,-133.51,-0.623483,1.69521,0.00083942,-0.015739,-0.918681,0.394685,-0.0291349,0.0351604,-0.153142,-0.82495,-1.28912,-10.9168,-0.482148,0.195838,0.311426,39.18,99.388,0.025001,-0.119743,0.0839398,-0.168814,-0.0239049,-0.0316304,-0.265941,0.469595,0.223729,0.311817,-0.214412,1.17665,-10.9585,-0.718378,-0.999415,-1.12793,-0.214412,1.17665,-1.16475,
6.84892,-133.69,-0.619842,1.66845,0.0007521,-0.0155132,-0.919303,0.393243,0.0559018,-0.0172261,-0.152223,-0.944769,-1.1078,-11.0465,-0.480918,0.194437,0.290659,39.18,99.4,0.024999,-0.0276392,0.00173004,-0.174489,-0.0223203,-0.0299966,-0.265904,0.468808,0.221635,0.290977,0.00168404,1.13922,-11.0836,-0.83882,-0.822667,-1.25743,0.00168404,1.13922,-1.28985,
6.87415,-133.866,-0.662327,1.733,0.000607868,-0.0161777,-0.919894,0.391833,0.037627,-0.0514803,-0.11379,-1.02133,-1.00219,-10.6166,-0.490838,0.193117,0.29728,39.18,99.4,0.025001,0.0635554,-0.0443906,-0.169489,-0.0206406,-0.0306494,-0.263172,0.475229,0.22884,0.297291,0.131734,1.11928,-10.6532,-0.908119,-0.706029,-0.828007,0.131734,1.11928,-0.859421,
6.89937,-134.043,-0.75461,1.91986,0.000478206,-0.0179939,-0.92046,0.390422,0.0791795,-0.0867101,-0.123154,-0.768633,-2.23834,-9.69884,-0.482156,0.193112,0.287864,39.18,99.4,0.024999,0.185559,-0.0944076,-0.168474,-0.0199394,-0.0354765,-0.260005,0.469662,0.221864,0.287797,-0.929615,1.78931,-9.77766,-0.639648,-1.91026,0.0885565,-0.929615,1.78931,0.0160837,
6.92462,-134.223,-0.908061,2.24404,0.000316978,-0.0211208,-0.920997,0.388997,0.273177,-0.130295,-0.0975856,-0.665022,-1.88178,-9.66654,-0.47712,0.186704,0.309013,39.18,99.413,0.025001,0.322873,-0.156515,-0.16837,-0.0199721,-0.0268448,-0.263798,0.461244,0.223789,0.308486,-0.720084,1.41344,-9.74213,-0.509811,-1.49835,0.118467,-0.720084,1.41344,0.0516205,
6.94994,-134.432,-1.09559,2.66597,0.000196117,-0.0251482,-0.921593,0.387343,0.393159,-0.167081,-0.139303,-0.203819,-0.150148,-10.4616,-0.476179,0.227141,0.294327,39.18,99.388,0.024999,0.419283,-0.192996,-0.195379,-0.0173924,-0.0264973,-0.266106,0.489615,0.194873,0.295414,0.243058,-0.232915,-10.4593,-0.0165584,0.305307,-0.680284,0.243058,-0.232915,-0.665542,
6.97525,-134.647,-1.32926,3.18146,2.59659e-06,-0.0300826,-0.922155,0.38565,0.418558,-0.189122,-0.177387,-0.452633,-0.454972,-11.0554,-0.474808,0.207511,0.286442,39.17,99.388,0.025001,0.51196,-0.241065,-0.197749,-0.0211428,-0.0293545,-0.26496,0.474522,0.208191,0.286423,0.250962,0.0274087,-11.0711,-0.22544,0.0884205,-1.27934,0.250962,0.0274087,-1.27735,
7.00047,-134.87,-1.59847,3.76309,-0.000276076,-0.0356665,-0.922681,0.383911,0.387989,-0.183765,-0.180099,-1.02662,-1.04334,-11.4538,-0.476023,0.207633,0.312793,39.185,99.375,0.024999,0.577182,-0.278915,-0.200609,-0.0198726,-0.0278644,-0.267206,0.474399,0.211986,0.31234,0.292655,0.704141,-11.5217,-0.753428,-0.400813,-1.68496,0.292655,0.704141,-1.72799,
7.0257,-135.108,-1.90662,4.43537,-0.00059312,-0.0421073,-0.923175,0.382066,0.438549,-0.227284,-0.1888,-1.13177,-1.86472,-10.9741,-0.472361,0.21411,0.29751,39.2,99.404,0.025001,0.666264,-0.321164,-0.21045,-0.0191951,-0.0294824,-0.26631,0.476259,0.205616,0.297288,-0.173088,1.25388,-11.117,-0.805924,-1.10775,-1.2151,-0.173088,1.25388,-1.32322,
7.05092,-135.352,-2.25619,5.14281,-0.00115567,-0.0489646,-0.923605,0.380203,0.480097,-0.255798,-0.159342,-1.06097,-0.982531,-10.9658,-0.468696,0.224638,0.309928,39.18,99.413,0.024999,0.699847,-0.365356,-0.208244,-0.0185962,-0.0181413,-0.2694,0.480105,0.198808,0.31011,0.448956,0.437311,-11.043,-0.675417,-0.105314,-1.21903,0.448956,0.437311,-1.24921,
7.07615,-135.596,-2.61417,5.83172,-0.00187499,-0.0556941,-0.923979,0.378363,0.394407,-0.252389,-0.145105,-0.744542,-0.775328,-10.9383,-0.467436,0.219347,0.294801,39.18,99.4,0.025001,0.680009,-0.376473,-0.202568,-0.0152779,-0.023161,-0.268071,0.475608,0.202309,0.293914,0.412188,-0.0723362,-10.983,-0.297849,0.218751,-1.20537,0.412188,-0.0723362,-1.18927,
7.10138,-135.835,-2.96824,6.51153,-0.00261755,-0.0623306,-0.924285,0.37657,0.382715,-0.260859,-0.134385,-0.705363,-1.99434,-10.5814,-0.460044,0.228546,0.299043,39.195,99.404,0.024999,0.669632,-0.374502,-0.194406,-0.0157782,-0.0200205,-0.269498,0.476143,0.193188,0.298776,-0.43811,0.663937,-10.7615,-0.198219,-0.885191,-0.863918,-0.43811,0.663937,-0.967707,
7.1266,-136.07,-3.28989,7.14775,-0.00326428,-0.068503,-0.92456,0.374815,0.420076,-0.237412,-0.122652,-0.50931,-1.33996,-10.3514,-0.460068,0.229786,0.285124,39.2,99.367,0.025001,0.625343,-0.34424,-0.189622,-0.0141469,-0.0195707,-0.270046,0.477233,0.192405,0.284584,-0.0940162,-0.0328895,-10.4497,0.0527325,-0.123352,-0.649807,-0.0940162,-0.0328895,-0.655992,
7.15188,-136.292,-3.56832,7.7847,-0.003574,-0.0745361,-0.924759,0.373164,0.462223,-0.210975,-0.112065,-0.251476,-1.11066,-10.1707,-0.46388,0.241505,0.28058,39.2,99.392,0.024999,0.625237,-0.301775,-0.17785,-0.0136666,-0.0217589,-0.268324,0.487732,0.187778,0.281233,-0.0871554,-0.466798,-10.2232,0.358073,0.213346,-0.486027,-0.0871554,-0.466798,-0.429486,
7.1771,-136.506,-3.81076,8.38291,-0.00373494,-0.0801362,-0.924933,0.371568,0.456478,-0.171984,-0.0920193,-0.423651,-0.566344,-10.8393,-0.455221,0.246778,0.282168,39.18,99.388,0.025,0.586449,-0.267161,-0.172102,-0.0130813,-0.0164222,-0.273827,0.484426,0.17977,0.28418,0.487656,-0.943287,-10.8103,0.227253,0.85831,-1.17163,0.487656,-0.943287,-1.01659,
7.20235,-136.721,-3.98954,8.96084,-0.00346602,-0.0853657,-0.925116,0.369946,0.375491,-0.131479,-0.103692,-0.608796,-0.640392,-10.3768,-0.460266,0.259892,0.297004,39.18,99.388,0.025,0.565516,-0.206053,-0.179036,-0.013999,-0.0243503,-0.268792,0.495462,0.17748,0.301028,0.592291,-0.793468,-10.3672,0.0725971,0.881379,-0.726041,0.592291,-0.793468,-0.573441,
7.22757,-136.933,-4.16537,9.53146,-0.00321355,-0.0905248,-0.925266,0.368344,0.370559,-0.13168,-0.113633,-0.599095,-1.31266,-10.2205,-0.457774,0.255898,0.279114,39.18,99.388,0.025001,0.55804,-0.204671,-0.175273,-0.0170065,-0.0191722,-0.266167,0.491168,0.176921,0.283545,0.161806,-0.393352,-10.313,0.112277,0.30479,-0.587431,0.161806,-0.393352,-0.5193,
7.25282,-137.143,-4.31644,10.0783,-0.00285336,-0.0954119,-0.925412,0.366745,0.425819,-0.0958305,-0.129618,-0.609126,-0.423722,-10.6203,-0.456581,0.262422,0.276244,39.18,99.375,0.024999,0.533718,-0.181815,-0.175809,-0.0147523,-0.0197378,-0.268249,0.494148,0.171978,0.282638,0.844576,-1.18252,-10.5466,0.127999,1.28526,-1.00504,0.844576,-1.18252,-0.752816,
7.27815,-137.357,-4.43685,10.6165,-0.00229244,-0.100131,-0.925564,0.365103,0.442899,-0.113646,-0.13332,-0.579351,-0.0282558,-10.8758,-0.455341,0.261076,0.266591,39.19,99.392,0.025001,0.524353,-0.153927,-0.182783,-0.0164066,-0.0206574,-0.265391,0.49215,0.171158,0.273972,1.15483,-1.62265,-10.7076,0.178295,1.77068,-1.27852,1.15483,-1.62265,-0.913836,
7.30336,-137.568,-4.55207,11.1216,-0.00180851,-0.104567,-0.925712,0.363483,0.400861,-0.110673,-0.116769,-0.511173,0.240592,-11.1124,-0.452861,0.263774,0.281907,39.195,99.379,0.024999,0.49161,-0.150026,-0.179294,-0.0168551,-0.0185878,-0.268838,0.490318,0.171228,0.290518,1.34562,-1.99389,-10.8636,0.266107,2.12376,-1.53286,1.34562,-1.99389,-1.06985,
7.32866,-137.783,-4.66955,11.6142,-0.00140131,-0.108908,-0.925857,0.361837,0.3212,-0.0997271,-0.139495,-0.259477,-0.229093,-10.9464,-0.459244,0.28588,0.265946,39.18,99.375,0.025001,0.477954,-0.154555,-0.18105,-0.0158528,-0.0235279,-0.265532,0.51035,0.157224,0.279612,0.87229,-1.88118,-10.7538,0.537821,1.73605,-1.38502,0.87229,-1.88118,-0.960034,
7.35394,-137.967,-4.77861,12.0925,-0.000956419,-0.113107,-0.925902,0.360431,0.28864,-0.0952684,-0.146635,-0.382685,-1.17178,-10.6492,-0.449241,0.276796,0.269266,39.18,99.388,0.024999,0.465886,-0.141743,-0.151839,-0.0162941,-0.0221698,-0.266271,0.495848,0.158536,0.282737,0.350318,-1.14516,-10.6532,0.433191,0.872789,-1.1061,0.350318,-1.14516,-0.859501,
7.37915,-138.134,-4.89387,12.5511,-0.000619303,-0.117164,-0.925889,0.359169,0.320583,-0.100907,-0.114269,-0.567089,-0.554039,-10.6701,-0.455426,0.272834,0.266349,39.18,99.388,0.025001,0.446975,-0.145438,-0.132778,-0.0169485,-0.01833,-0.266593,0.497314,0.165793,0.279257,0.938001,-1.54678,-10.5455,0.268419,1.56648,-1.14524,0.938001,-1.54678,-0.751728,
7.40439,-138.292,-5.02662,12.968,-0.000555326,-0.120937,-0.925858,0.357997,0.267059,-0.13265,-0.0971605,-1.10569,-0.439961,-11.0122,-0.453058,0.288503,0.261945,39.195,99.379,0.024999,0.405944,-0.161462,-0.118786,-0.0198325,-0.0201103,-0.266963,0.505805,0.152926,0.279079,1.47279,-1.42333,-10.8853,-0.247579,1.74937,-1.50496,1.47279,-1.42333,-1.09157,
7.42969,-138.453,-5.16663,13.3572,-0.00064972,-0.124506,-0.925843,0.356808,0.201732,-0.133103,-0.0965639,-0.752411,-0.566793,-11.0388,-0.45066,0.300258,0.259012,39.18,99.375,0.025,0.377277,-0.170142,-0.118964,-0.0164758,-0.0200785,-0.266468,0.511637,0.143015,0.279482,1.15377,-1.64817,-10.8947,0.129541,1.68657,-1.54869,1.15377,-1.64817,-1.10095,
7.45492,-138.605,-5.28607,13.7043,-0.000706878,-0.12767,-0.925846,0.355681,0.155164,-0.105628,-0.0774788,-0.821357,-1.12772,-10.7481,-0.455605,0.297642,0.263057,39.18,99.4,0.025001,0.335632,-0.148771,-0.11377,-0.0161821,-0.0202303,-0.26687,0.512866,0.149674,0.282722,0.832675,-1.19988,-10.7394,0.0809257,1.18266,-1.27361,0.832675,-1.19988,-0.945639,
7.48014,-138.752,-5.39899,14.013,-0.000831084,-0.130503,-0.925867,0.354596,0.145666,-0.109804,-0.0762739,-0.557671,-1.36774,-10.5196,-0.455592,0.29501,0.258945,39.18,99.375,0.025,0.297467,-0.141735,-0.108926,-0.0158288,-0.0216672,-0.266178,0.511226,0.151006,0.278374,0.476468,-1.20508,-10.5434,0.36383,0.993219,-1.05943,0.476468,-1.20508,-0.749681,
7.50536,-138.883,-5.54815,14.2657,-0.00141163,-0.13299,-0.925868,0.353666,0.123176,-0.125641,-0.0652034,-0.67384,-1.38539,-10.4337,-0.446768,0.274069,0.243014,39.195,99.379,0.024999,0.242463,-0.173769,-0.0848413,-0.019634,-0.0190619,-0.264876,0.492368,0.156693,0.258442,0.551665,-1.14899,-10.4695,0.273041,1.01666,-0.986418,0.551665,-1.14899,-0.675774,
7.53059,-139,-5.73855,14.4487,-0.00252963,-0.135035,-0.925866,0.352891,0.0952779,-0.143593,-0.0248966,-0.542791,-1.03191,-10.2728,-0.440531,0.271518,0.250233,39.2,99.367,0.025,0.173829,-0.210538,-0.0600043,-0.0153066,-0.0200058,-0.264869,0.48574,0.156594,0.264464,0.663507,-1.49545,-10.2085,0.436478,1.39951,-0.836363,0.663507,-1.49545,-0.414763,
7.55585,-139.096,-5.94435,14.5651,-0.00395639,-0.136584,-0.925859,0.352298,0.0373806,-0.13754,-0.000804698,-0.700854,-1.15461,-10.8287,-0.435471,0.259817,0.257598,39.195,99.388,0.025,0.108922,-0.220438,-0.0356575,-0.0180239,-0.0189954,-0.266371,0.474233,0.16385,0.267867,0.735175,-1.48754,-10.7857,0.31341,1.29507,-1.40063,0.735175,-1.48754,-0.991939,
7.58108,-139.193,-6.11198,14.6359,-0.00521605,-0.137649,-0.925936,0.351665,-0.00671728,-0.0931893,-0.00140193,-0.752946,-1.64373,-10.8382,-0.452861,0.258375,0.245895,39.19,99.388,0.025001,0.0629115,-0.183762,-0.0455072,-0.0145163,-0.0251767,-0.264508,0.488032,0.173175,0.253261,0.438437,-1.13835,-10.92,0.289813,0.816845,-1.41611,0.438437,-1.13835,-1.12629,
7.60648,-139.277,-6.22607,14.7006,-0.00604555,-0.138505,-0.926022,0.35109,0.0391397,-0.0689221,-0.00897435,-0.784599,-1.67445,-10.5434,-0.434318,0.270208,0.243534,39.18,99.363,0.024999,0.0579704,-0.128851,-0.0465473,-0.0139639,-0.0205484,-0.264479,0.482408,0.151958,0.255236,0.406881,-1.04305,-10.6456,0.277549,0.796237,-1.12614,0.406881,-1.04305,-0.851882,
7.63171,-139.34,-6.27282,14.717,-0.00645233,-0.138771,-0.926158,0.350617,0.0611718,-0.0311142,-0.0139973,-0.766615,-0.67065,-10.6202,-0.436791,0.268896,0.244862,39.18,99.375,0.025,0.0116655,-0.05854,-0.0439121,-0.0140092,-0.0200551,-0.26612,0.483579,0.154515,0.255588,1.04784,-1.80151,-10.4634,0.303477,1.8025,-1.20448,1.04784,-1.80151,-0.669657,
7.65693,-139.388,-6.2836,14.6846,-0.00669619,-0.138539,-0.926333,0.350241,0.040325,-0.0137831,-0.0254292,-0.917945,-0.151573,-10.7765,-0.438057,0.27283,0.248905,39.18,99.375,0.025,-0.0352573,-0.0196787,-0.0374686,-0.0181823,-0.0212387,-0.263661,0.487019,0.153066,0.260129,1.50612,-2.11401,-10.5005,0.153978,2.31621,-1.35957,1.50612,-2.11401,-0.706783,
7.68216,-139.413,-6.27769,14.591,-0.00696508,-0.137763,-0.926529,0.350024,-0.0307713,0.0208838,-0.0013166,-0.949516,0.0101768,-10.7544,-0.438005,0.266324,0.254597,39.18,99.388,0.025001,-0.0943397,0.00205202,-0.0206026,-0.016452,-0.0202727,-0.263516,0.482622,0.158535,0.263703,1.62174,-2.1911,-10.4465,0.121403,2.46259,-1.33339,1.62174,-2.1911,-0.652729,
7.7074,-139.417,-6.22236,14.4228,-0.00703361,-0.13624,-0.926787,0.349935,-0.125798,0.0501819,0.00304531,-0.583196,-0.47482,-10.5429,-0.431738,0.257169,0.24667,39.18,99.375,0.025,-0.166258,0.0553162,-0.0121655,-0.0152118,-0.0230451,-0.262387,0.472955,0.158078,0.254371,0.999227,-1.99622,-10.3312,0.478322,1.95019,-1.11365,0.999227,-1.99622,-0.537472,
7.73275,-139.41,-6.12933,14.1979,-0.00695566,-0.134147,-0.927107,0.349899,-0.166249,0.0860564,-0.023986,-0.508903,-1.0655,-10.5394,-0.439275,0.268877,0.243384,39.18,99.375,0.024999,-0.221961,0.0946536,-0.0106931,-0.0173324,-0.0232745,-0.262004,0.486909,0.152537,0.253269,0.544433,-1.57735,-10.4732,0.536805,1.32289,-1.09906,0.544433,-1.57735,-0.679466,
7.75798,-139.4,-6.04626,13.9013,-0.00717371,-0.131502,-0.927485,0.349896,-0.192433,0.0851558,-0.0319019,-0.698159,-1.19253,-10.9696,-0.439422,0.291124,0.25126,39.195,99.388,0.025,-0.293224,0.0858311,-0.00462717,-0.0193042,-0.0213668,-0.2617,0.501506,0.137156,0.265812,0.614374,-1.41979,-10.9475,0.33343,1.14732,-1.51554,0.614374,-1.41979,-1.15374,
7.78321,-139.376,-5.97132,13.5348,-0.00765679,-0.128316,-0.927888,0.35,-0.234122,0.0602261,-0.0262583,-1.00471,-0.515006,-10.7607,-0.443117,0.2872,0.253987,39.19,99.379,0.025,-0.361855,0.081075,0.0102215,-0.0190752,-0.020489,-0.257561,0.502404,0.141407,0.266346,1.23656,-1.5976,-10.6295,0.0141348,1.76465,-1.29064,1.23656,-1.5976,-0.835772,
7.80843,-139.334,-5.73756,12.6953,-0.00820431,-0.12083,-0.928649,0.350633,-0.380665,0.124948,0.00417159,-1.09332,-1.52003,-10.3241,-0.443061,0.280708,0.262457,39.2,99.367,0.025001,-0.417448,0.142308,0.0399364,-0.016796,-0.028348,-0.257466,0.499181,0.144577,0.271845,0.548924,-0.564586,-10.4629,-0.11422,0.621516,-0.81764,0.548924,-0.564586,-0.66917,
7.83365,-139.191,-5.60493,12.2802,-0.00831538,-0.117078,-0.92894,0.351133,-0.366228,0.114345,0.0183974,-0.797734,-2.18206,-9.63973,-0.440539,0.276855,0.27374,39.18,99.363,0.025,-0.405217,0.148898,0.0519967,-0.0191921,-0.0310092,-0.253363,0.494717,0.146678,0.281775,-0.183183,-0.0500574,-9.91393,0.158806,-0.108958,-0.115827,-0.183183,-0.0500574,-0.120189,
7.85893,-139.104,-5.46096,11.8899,-0.00825281,-0.11349,-0.929168,0.351709,-0.270808,0.0955602,0.0511372,-0.574132,-2.04565,-9.73024,-0.443037,0.278123,0.268068,39.18,99.388,0.025,-0.379536,0.161711,0.0602395,-0.0176066,-0.0269658,-0.254521,0.498381,0.144678,0.276006,-0.281295,-0.247581,-9.95246,0.357914,-0.0369791,-0.190114,-0.281295,-0.247581,-0.158713,
7.88419,-139.006,-5.30561,11.5129,-0.00805169,-0.109974,-0.929343,0.352367,-0.196541,0.112183,0.0440549,-0.698961,-0.538219,-10.1131,-0.447951,0.271608,0.276363,39.2,99.379,0.024999,-0.365679,0.174546,0.0690247,-0.0196321,-0.0255777,-0.254614,0.49774,0.153055,0.282198,0.804286,-1.27648,-10.0387,0.206647,1.40812,-0.557473,0.804286,-1.27648,-0.244967,
7.90956,-138.889,-5.16744,11.1176,-0.00803338,-0.106361,-0.929448,0.353198,-0.255239,0.11216,0.0527901,-0.634544,-0.0178771,-10.3983,-0.445501,0.275512,0.270813,39.2,99.367,0.025001,-0.382548,0.161196,0.0928518,-0.0187633,-0.0272028,-0.253044,0.49935,0.146278,0.277435,1.09035,-1.68636,-10.2222,0.247545,1.86291,-0.827374,1.09035,-1.68636,-0.428497,
7.93482,-138.752,-5.05799,10.7115,-0.00827126,-0.102747,-0.929467,0.35421,-0.304226,0.111172,0.0611476,-0.56628,-1.02695,-10.0942,-0.447914,0.26639,0.277861,39.18,99.363,0.024999,-0.391473,0.136065,0.118657,-0.0209002,-0.0294162,-0.250508,0.495363,0.154949,0.281786,0.325694,-0.867666,-10.1198,0.297176,0.786269,-0.508611,0.325694,-0.867666,-0.326032,
7.96003,-138.591,-4.99456,10.3206,-0.00882362,-0.0993964,-0.929354,0.355449,-0.23527,0.0772415,0.083156,-0.659855,-1.37446,-9.94705,-0.451593,0.261185,0.286171,39.19,99.392,0.025,-0.374566,0.0944229,0.15159,-0.0199258,-0.029102,-0.25091,0.4949,0.162203,0.287771,0.122262,-0.465318,-10.0517,0.1928,0.373492,-0.348352,0.122262,-0.465318,-0.25797,
7.98525,-138.404,-4.9081,9.98313,-0.00900955,-0.0964108,-0.929115,0.356889,-0.177828,0.102399,0.0913838,-0.886787,-1.01186,-10.5408,-0.447835,0.255966,0.283634,39.185,99.35,0.025,-0.319134,0.120699,0.173718,-0.0166406,-0.0338517,-0.252242,0.489107,0.162853,0.284211,0.536843,-0.634364,-10.5938,-0.0488563,0.67974,-0.93075,0.536843,-0.634364,-0.80007,
8.01049,-138.196,-4.80499,9.71391,-0.00883918,-0.0939288,-0.928753,0.358494,-0.16871,0.131238,0.107535,-0.676476,-1.02652,-10.2361,-0.452788,0.254655,0.287652,39.18,99.375,0.025001,-0.24963,0.139728,0.19172,-0.0183882,-0.0319081,-0.250759,0.491684,0.168066,0.287421,0.338517,-0.656899,-10.2831,0.143893,0.620157,-0.616705,0.338517,-0.656899,-0.489403,
8.03571,-137.979,-4.66633,9.52797,-0.00811943,-0.0920112,-0.928305,0.360163,-0.134628,0.142489,0.126808,-0.775132,-1.86182,-9.54579,-0.451671,0.270278,0.274869,39.185,99.379,0.024999,-0.165889,0.175644,0.195725,-0.0170834,-0.0360101,-0.248838,0.501492,0.154331,0.278025,-0.185037,0.177903,-9.75313,0.0216167,-0.246043,0.0808299,-0.185037,0.177903,0.040617,
8.06097,-137.735,-4.47229,9.45469,-0.00658026,-0.0908325,-0.927708,0.362029,-0.0025145,0.180414,0.162459,-0.763597,-2.04422,-9.52728,-0.44904,0.250734,0.283698,39.18,99.35,0.025,-0.0514052,0.234195,0.213355,-0.0174988,-0.0337786,-0.250861,0.484821,0.169381,0.285039,-0.301936,0.335602,-9.76356,9.03199e-05,-0.440325,0.104013,-0.301936,0.335602,0.0301838,
8.08619,-137.462,-4.25095,9.44828,-0.00458944,-0.0901039,-0.926973,0.364116,0.0953178,0.203832,0.181336,-0.746784,-0.633836,-10.009,-0.450335,0.258573,0.28488,39.195,99.392,0.025,0.0165735,0.2658,0.237624,-0.0179991,-0.0265169,-0.251619,0.4894,0.166357,0.289191,0.69193,-0.74645,-10.0051,-0.0208218,0.969455,-0.37465,0.69193,-0.74645,-0.211389,
8.11142,-137.175,-4.04471,9.43493,-0.00273573,-0.0893577,-0.926184,0.366322,0.0281993,0.152372,0.182464,-0.752586,-0.222168,-10.1365,-0.459122,0.270242,0.274605,39.185,99.375,0.025001,0.00933309,0.253277,0.253876,-0.0201702,-0.0266371,-0.249639,0.502817,0.163924,0.282022,1.01197,-1.02884,-10.0639,-0.0617857,1.3793,-0.499282,1.01197,-1.02884,-0.270118,
8.13668,-136.858,-3.84977,9.38705,-0.00106547,-0.0883599,-0.925311,0.368769,-0.0423997,0.15198,0.187547,-1.00848,-1.2574,-10.268,-0.461462,0.250662,0.280479,39.18,99.375,0.024999,-0.0235206,0.246732,0.285017,-0.0217801,-0.0274512,-0.250706,0.489338,0.182351,0.285908,0.524747,-0.103279,-10.38,-0.350923,0.336384,-0.627241,0.524747,-0.103279,-0.586265,
8.16195,-136.524,-3.67447,9.3233,0.000402602,-0.0872878,-0.924373,0.371369,-0.0371369,0.172739,0.174307,-0.997744,-1.7016,-10.2561,-0.456509,0.254657,0.291688,39.18,99.363,0.025,-0.0394814,0.230146,0.306,-0.020276,-0.0273459,-0.252808,0.486284,0.179905,0.299157,0.226953,0.23941,-10.4389,-0.370086,-0.118225,-0.611632,0.226953,0.23941,-0.645144,
8.18717,-136.216,-3.45467,9.30501,0.00235199,-0.0864311,-0.923501,0.373726,0.0230428,0.184197,0.156456,-1.07894,-1.64363,-10.1321,-0.462734,0.254561,0.277575,39.195,99.367,0.025,0.00295492,0.269442,0.272642,-0.0166229,-0.037096,-0.250283,0.489942,0.183776,0.286626,0.342227,0.305484,-10.3109,-0.488778,-0.0629589,-0.484767,0.342227,0.305484,-0.517134,
8.21237,-135.923,-3.16946,9.39073,0.00515549,-0.0861898,-0.922617,0.375928,0.0672821,0.259998,0.1684,-1.0171,-2.08399,-10.0466,-0.466382,0.246805,0.298443,39.2,99.354,0.025001,0.104851,0.331918,0.248466,-0.0174517,-0.0349604,-0.250491,0.483341,0.19686,0.308416,0.0324249,0.611566,-10.2925,-0.475608,-0.488423,-0.398871,0.0324249,0.611566,-0.498792,
8.23759,-135.672,-2.84458,9.61341,0.00869636,-0.0869098,-0.921782,0.377743,0.147491,0.260045,0.144411,-0.733257,-1.61691,-9.63194,-0.457604,0.237789,0.317,39.18,99.375,0.024999,0.237974,0.36472,0.198708,-0.0157651,-0.0378308,-0.246421,0.466283,0.201735,0.329116,0.187177,0.162811,-9.79105,-0.247225,0.016626,0.012376,0.187177,0.162811,0.00269127,
8.26284,-135.448,-2.4502,9.99672,0.0133098,-0.0886803,-0.920934,0.379261,0.294349,0.312366,0.0987031,-0.496991,-1.60785,-9.69649,-0.475047,0.242844,0.298216,39.19,99.367,0.025001,0.395983,0.429787,0.158314,-0.0185604,-0.0363782,-0.250662,0.479912,0.209501,0.315229,0.12443,-0.0175447,-9.84064,-0.0782974,0.0907148,-0.0602506,0.12443,-0.0175447,-0.046896,
8.28834,-135.252,-2.05111,10.4172,0.0180682,-0.0907197,-0.920135,0.38052,0.371709,0.285679,0.0788003,-0.70995,-0.107563,-10.0479,-0.473935,0.259786,0.288184,39.18,99.35,0.024999,0.430633,0.430604,0.127743,-0.0205747,-0.0222586,-0.251191,0.487965,0.197302,0.313233,1.45674,-0.965199,-9.9208,-0.359423,1.66216,-0.42176,1.45674,-0.965199,-0.127055,
8.31362,-135.076,-1.7152,10.7997,0.0221806,-0.0926494,-0.91939,0.381636,0.268327,0.22659,0.0754294,-1.08632,-0.0422792,-10.4631,-0.481528,0.279332,0.284737,39.2,99.367,0.025001,0.390315,0.366009,0.116658,-0.0269617,-0.0274123,-0.252012,0.503912,0.190406,0.317472,1.90598,-0.809361,-10.3137,-0.793179,1.79201,-0.847172,1.90598,-0.809361,-0.519907,
8.33884,-134.913,-1.48769,11.0927,0.0251176,-0.094212,-0.918705,0.38272,0.140035,0.151303,0.104121,-1.37782,-1.08305,-10.3201,-0.475198,0.265079,0.303314,39.18,99.363,0.024999,0.300536,0.257866,0.122314,-0.028151,-0.0195087,-0.251206,0.48467,0.20037,0.336192,1.43647,0.133903,-10.368,-1.12355,0.800606,-0.712594,1.43647,0.133903,-0.574233,
8.36429,-134.757,-1.32004,11.2778,0.0272105,-0.0951021,-0.918102,0.383803,0.0538772,0.132182,0.116886,-0.882749,-1.17871,-9.80559,-0.490187,0.272706,0.27345,39.18,99.363,0.025001,0.191539,0.198113,0.125784,-0.0215141,-0.0250053,-0.253063,0.502198,0.2026,0.310124,1.00254,-0.0707023,-9.86449,-0.657131,0.736102,-0.203502,1.00254,-0.0707023,-0.0707397,
8.38975,-134.617,-1.1561,11.4482,0.0292123,-0.0958856,-0.917561,0.384752,0.0817127,0.141835,0.107103,-0.637821,-1.97721,-9.58294,-0.478937,0.265002,0.290679,39.18,99.363,0.024999,0.176002,0.191698,0.109567,-0.0188473,-0.0304721,-0.253674,0.484916,0.203789,0.327762,0.28372,0.338564,-9.7956,-0.440219,-0.033733,0.0140015,0.28372,0.338564,-0.00185585,
8.41501,-134.502,-0.963072,11.643,0.0315105,-0.0967692,-0.91709,0.385473,0.186143,0.170091,0.0630071,-0.655104,-1.29562,-9.94502,-0.477684,0.265053,0.300447,39.2,99.367,0.025001,0.199803,0.215709,0.0796089,-0.0188495,-0.0285773,-0.25585,0.480782,0.205355,0.339678,0.867699,-0.170072,-10.0115,-0.490491,0.680609,-0.354141,0.867699,-0.170072,-0.217712,
8.44026,-134.405,-0.724579,11.8796,0.0342989,-0.0978342,-0.916658,0.385994,0.254241,0.193259,0.0190512,-0.372945,-0.474237,-10.3315,-0.485068,0.257233,0.311458,39.18,99.35,0.024999,0.240676,0.256861,0.0520458,-0.0166947,-0.0302878,-0.254959,0.476581,0.218471,0.351578,1.35848,-0.989244,-10.2118,-0.249094,1.5417,-0.748283,1.35848,-0.989244,-0.418006,
8.46552,-134.307,-0.455873,12.117,0.0373331,-0.0987993,-0.91623,0.38648,0.215447,0.196042,0.0140552,-0.857476,-0.0530864,-10.3053,-0.485095,0.261159,0.312767,39.2,99.354,0.025001,0.240901,0.286722,0.0450507,-0.0219079,-0.0231008,-0.25373,0.476575,0.216684,0.356748,2.05372,-0.91856,-10.0933,-0.779554,2.00265,-0.730047,2.05372,-0.91856,-0.299601,
8.49118,-134.219,-0.223629,12.2947,0.0398655,-0.0994074,-0.91587,0.386925,0.094004,0.152968,-0.00135495,-1.1058,-0.628782,-10.3208,-0.480093,0.25729,0.31858,39.185,99.363,0.024999,0.181406,0.249319,0.0418638,-0.0236065,-0.0259054,-0.25093,0.467359,0.217083,0.364184,1.87813,-0.34033,-10.2223,-1.06758,1.45668,-0.751793,1.87813,-0.34033,-0.428528,
8.51642,-134.136,-0.0393351,12.402,0.0417731,-0.0996133,-0.915566,0.387391,-0.016045,0.110012,0.0145647,-1.38309,-1.71184,-10.0172,-0.482783,0.281959,0.288806,39.2,99.367,0.025001,0.110517,0.201569,0.0469313,-0.024326,-0.0251606,-0.250662,0.489478,0.198084,0.342292,1.30242,0.65371,-10.1521,-1.37637,0.391559,-0.452039,1.30242,0.65371,-0.35834,
8.54167,-134.066,0.0785997,12.4201,0.0428376,-0.0993324,-0.915354,0.387846,-0.0804764,0.07233,0.0410101,-0.938463,-2.22074,-9.57264,-0.490204,0.278018,0.291401,39.18,99.338,0.024999,0.021076,0.134338,0.0488816,-0.0240379,-0.0235974,-0.252805,0.490658,0.206651,0.345049,0.583085,0.760451,-9.82494,-0.951898,-0.114326,-0.00810402,0.583085,0.760451,-0.0311975,
8.56692,-134.009,0.166716,12.389,0.0434852,-0.0987637,-0.91522,0.388236,-0.0625977,0.0592871,0.024808,-0.425164,-2.18446,-9.0893,-0.491313,0.261097,0.305602,39.18,99.375,0.025001,-0.028068,0.102024,0.0420398,-0.0183651,-0.027046,-0.253575,0.47689,0.221002,0.355931,0.182294,0.45285,-9.34503,-0.453661,-0.0832522,0.476347,0.182294,0.45285,0.448711,
8.59213,-133.963,0.280669,12.3396,0.0442671,-0.0979659,-0.915148,0.388519,0.00764057,0.0999431,0.0139875,-0.525952,-1.3708,-9.97934,-0.492561,0.262418,0.309698,39.18,99.35,0.024999,-0.0464563,0.125064,0.0253729,-0.0180687,-0.0279488,-0.255358,0.477592,0.221255,0.361033,0.970423,-0.136882,-10.039,-0.573928,0.722166,-0.411961,0.970423,-0.136882,-0.245297,
8.61735,-133.938,0.451341,12.2922,0.0454903,-0.0969973,-0.915161,0.388591,0.0539614,0.126253,-0.0195388,-0.362006,-0.524518,-10.0928,-0.487675,0.271505,0.293015,39.18,99.338,0.025001,-0.0445927,0.17601,-0.00645726,-0.0159885,-0.0286158,-0.2542,0.482602,0.208422,0.347931,1.48393,-0.818107,-9.96994,-0.439154,1.56048,-0.523889,1.48393,-0.818107,-0.176192,
8.64255,-133.906,0.663554,12.245,0.0470509,-0.0958858,-0.915162,0.388678,0.0103455,0.144666,-0.0256785,-0.471716,-0.190534,-10.4424,-0.495136,0.275469,0.30934,39.2,99.354,0.024999,-0.0440888,0.21818,-0.00877134,-0.0165,-0.0290701,-0.252904,0.487131,0.212513,0.366437,1.8709,-0.981424,-10.2391,-0.585137,1.8865,-0.872069,1.8709,-0.981424,-0.445312,
8.66776,-133.88,0.906632,12.2029,0.0488697,-0.0947121,-0.915185,0.388687,-0.0648618,0.169951,-0.0407021,-0.565398,-0.838695,-10.3675,-0.492541,0.261158,0.31945,39.2,99.354,0.025001,-0.039662,0.246971,-0.0211402,-0.018737,-0.0305104,-0.251117,0.472651,0.220654,0.375182,1.49364,-0.425717,-10.3003,-0.720366,1.2312,-0.796257,1.49364,-0.425717,-0.506558,
8.69299,-133.862,1.16163,12.1535,0.0507526,-0.0934404,-0.915236,0.388634,-0.102763,0.19649,-0.0527322,-0.897173,-1.71595,-10.2612,-0.491262,0.255946,0.320991,39.195,99.33,0.024999,-0.0462719,0.257569,-0.030086,-0.0197727,-0.030402,-0.250527,0.466849,0.222213,0.377565,1.11565,0.464096,-10.3722,-1.09572,0.345524,-0.688932,1.11565,0.464096,-0.57841,
8.7182,-133.842,1.39194,12.0757,0.0523426,-0.0920245,-0.915294,0.388625,-0.120819,0.149835,-0.0472747,-1.09332,-2.13332,-9.64019,-0.499999,0.26245,0.323327,39.2,99.33,0.025,-0.0749047,0.233558,-0.0235248,-0.0214328,-0.0295502,-0.244358,0.476305,0.223106,0.383114,0.873189,1.00935,-9.8437,-1.33122,-0.0850318,-0.0659835,0.873189,1.00935,-0.0499506,
8.74345,-133.831,1.54493,11.9382,0.0531054,-0.0903988,-0.915406,0.38864,-0.138436,0.0702954,-0.0132007,-0.790511,-1.64204,-9.50545,-0.496235,0.25591,0.318039,39.18,99.338,0.025,-0.134479,0.156466,-0.0160713,-0.0219914,-0.0234924,-0.24492,0.469894,0.222935,0.377343,0.986745,0.508413,-9.61471,-1.05456,0.38312,0.0729832,0.986745,0.508413,0.179032,
